time,ax,ay,az,wx,wy,wz,Bx,By,Bz,latitude,longitude,altitude,speed
2025-02-13T05:43:04.801Z,-0.2775,0.024,0.5453,-0.2692,-0.2876,0.0531,-30.9249,29.025,-25.3177,12.86182578,77.66470991,925.0079,-1
2025-02-13T05:43:04.804Z,-0.2775,0.024,0.5453,-0.1753,-0.1668,0.1018,-30.9249,29.025,-25.3177,12.86182578,77.66470991,925.0079,-1
2025-02-13T05:43:04.812Z,-0.0585,-0.1047,0.6579,0.063,0.0344,0.0687,-30.9249,29.025,-25.3177,12.86182578,77.66470991,925.0079,-1
2025-02-13T05:43:04.822Z,0.1941,-0.1942,0.687,0.1577,0.0861,0.0053,-30.9249,29.025,-25.3177,12.86182578,77.66470991,925.0079,-1
2025-02-13T05:43:04.833Z,0.4528,-0.1449,0.5582,0.202,0.1025,-0.0629,-30.9249,29.025,-25.3177,12.86182578,77.66470991,925.0079,-1
2025-02-13T05:43:04.843Z,0.5018,-0.1001,0.2884,0.1922,0.0943,-0.1046,-30.9249,29.025,-25.3177,12.86182578,77.66470991,925.0079,-1
2025-02-13T05:43:04.853Z,0.3358,-0.0485,-0.0567,0.1558,0.0805,-0.102,-30.9249,29.025,-25.3177,12.86182578,77.66470991,925.0079,-1
2025-02-13T05:43:04.862Z,0.0684,0.0133,-0.2475,0.1159,0.0653,-0.063,-30.9249,29.025,-25.3177,12.86182578,77.66470991,925.0079,-1
2025-02-13T05:43:04.872Z,-0.174,0.0598,-0.3217,0.1159,0.0653,-0.063,-30.9249,29.025,-25.3177,12.86182578,77.66470991,925.0079,-1
2025-02-13T05:43:04.883Z,-0.3279,0.0563,-0.365,0.0233,0.02,0.0348,-30.9249,29.025,-25.3177,12.86182578,77.66470991,925.0079,-1
2025-02-13T05:43:04.893Z,-0.359,0.0032,-0.3993,-0.0277,-0.0178,0.0607,-30.9249,29.025,-25.3177,12.86182578,77.66470991,925.0079,-1
2025-02-13T05:43:04.903Z,-0.2904,-0.043,-0.4185,-0.0736,-0.0547,0.0613,-30.9249,29.025,-25.3177,12.86182578,77.66470991,925.0079,-1
2025-02-13T05:43:04.913Z,-0.1474,-0.069,-0.4082,-0.0986,-0.075,0.0494,-30.9249,29.025,-25.3177,12.86182578,77.66470991,925.0079,-1
2025-02-13T05:43:04.923Z,0.0103,-0.068,-0.2924,-0.1001,-0.0612,0.0291,-30.9249,29.025,-25.3177,12.86182578,77.66470991,925.0079,-1
2025-02-13T05:43:04.932Z,0.1394,-0.0761,-0.1475,-0.1001,-0.0612,0.0291,-30.9249,29.025,-25.3177,12.86182578,77.66470991,925.0079,-1
2025-02-13T05:43:04.943Z,0.2334,-0.0854,0.0442,-0.031,0.0209,-0.0186,-30.9249,29.025,-25.3177,12.86182578,77.66470991,925.0079,-1
2025-02-13T05:43:04.953Z,0.2365,-0.0857,0.2093,0.0155,0.0656,-0.0306,-30.9249,29.025,-25.3177,12.86182578,77.66470991,925.0079,-1
2025-02-13T05:43:04.962Z,0.1715,-0.0976,0.274,0.0155,0.0656,-0.0306,-30.9249,29.025,-25.3177,12.86182578,77.66470991,925.0079,-1
2025-02-13T05:43:04.973Z,0.0754,-0.0921,0.2409,0.0599,0.085,-0.0222,-30.9249,29.025,-25.3177,12.86182578,77.66470991,925.0079,-1
2025-02-13T05:43:04.983Z,-0.01,-0.0445,0.169,0.0493,0.0525,-0.0128,-30.9249,29.025,-25.3177,12.86182578,77.66470991,925.0079,-1
2025-02-13T05:43:04.993Z,-0.0526,-0.027,0.0629,0.0213,0.0091,-0.0049,-30.9249,29.025,-25.3177,12.86182578,77.66470991,925.0079,-1
2025-02-13T05:43:05.002Z,-0.065,-0.0155,-0.0396,0.0213,0.0091,-0.0049,-30.9249,29.025,-25.3177,12.86182578,77.66470991,925.0079,-1
2025-02-13T05:43:05.012Z,-0.0602,-0.009,-0.119,-0.0147,-0.028,-0.001,-30.9249,29.025,-25.3177,12.86182578,77.66470991,925.0079,-1
2025-02-13T05:43:05.022Z,-0.0424,-0.0189,-0.1199,-0.0445,-0.0451,0.0007,-30.9249,29.025,-25.3177,12.86182578,77.66470991,925.0079,-1
2025-02-13T05:43:05.032Z,-0.0192,-0.0422,-0.0471,-0.0512,-0.0436,0.0022,-30.9249,29.025,-25.3177,12.86182578,77.66470991,925.0079,-1
2025-02-13T05:43:05.042Z,0.0058,-0.0371,0.0647,-0.0388,-0.0324,0.0019,-30.9249,29.025,-25.3177,12.86182578,77.66470991,925.0079,-1
2025-02-13T05:43:05.052Z,0.0263,-0.0613,0.1432,-0.0099,-0.0101,0.0003,-30.9249,29.025,-25.3177,12.86182578,77.66470991,925.0079,-1
2025-02-13T05:43:05.062Z,0.0504,-0.054,0.1618,0.0206,0.0093,-0.0062,-30.9249,29.025,-25.3177,12.86182578,77.66470991,925.0079,-1
2025-02-13T05:43:05.072Z,0.0485,-0.0344,0.1106,0.0407,0.0252,-0.0111,-30.9249,29.025,-25.3177,12.86182578,77.66470991,925.0079,-1
2025-02-13T05:43:05.084Z,0.0548,-0.0204,0.0166,0.0355,0.0362,-0.0174,-30.9249,29.025,-25.3177,12.86182578,77.66470991,925.0079,-1
2025-02-13T05:43:05.092Z,0.0353,-0.0177,-0.0492,0.0355,0.0362,-0.0174,-30.9249,29.025,-25.3177,12.86182578,77.66470991,925.0079,-1
2025-02-13T05:43:05.102Z,-0.005,-0.0181,-0.1055,0.0171,0.023,-0.0141,-30.9249,29.025,-25.3177,12.86182578,77.66470991,925.0079,-1
2025-02-13T05:43:05.112Z,-0.0213,-0.0237,-0.0849,-0.0079,0.0015,-0.0101,-30.9249,29.025,-25.3177,12.86182578,77.66470991,925.0079,-1
2025-02-13T05:43:05.122Z,-0.0245,-0.0384,-0.0387,-0.0217,-0.0199,-0.0125,-30.9249,29.025,-25.3177,12.86182578,77.66470991,925.0079,-1
2025-02-13T05:43:05.134Z,-0.0425,-0.0617,0.0366,-0.0258,-0.0356,-0.0056,-30.9249,29.025,-25.3177,12.86182578,77.66470991,925.0079,-1
2025-02-13T05:43:05.142Z,-0.0452,-0.0543,0.1136,-0.0142,-0.0298,-0.0026,-30.9249,29.025,-25.3177,12.86182578,77.66470991,925.0079,-1
2025-02-13T05:43:05.152Z,0.0046,-0.06,0.1664,0.0058,-0.0137,0.0011,-30.9249,29.025,-25.3177,12.86182578,77.66470991,925.0079,-1
2025-02-13T05:43:05.162Z,0.0676,-0.0583,0.1651,0.0254,0.0072,-0.0037,-30.9249,29.025,-25.3177,12.86182578,77.66470991,925.0079,-1
2025-02-13T05:43:05.172Z,0.1029,-0.0674,0.1189,0.0389,0.0185,-0.0152,-30.9249,29.025,-25.3177,12.86182578,77.66470991,925.0079,-1
2025-02-13T05:43:05.185Z,0.1029,-0.0674,0.1189,0.0474,0.0199,-0.0314,-30.9249,29.025,-25.3177,12.86182578,77.66470991,925.0079,-1
2025-02-13T05:43:05.192Z,0.0525,-0.0588,0.0783,0.0516,0.0194,-0.0394,-30.9249,29.025,-25.3177,12.86182578,77.66470991,925.0079,-1
2025-02-13T05:43:05.202Z,-0.01,-0.0189,0.0564,0.0549,0.0149,-0.0364,-30.9249,29.025,-25.3177,12.86182578,77.66470991,925.0079,-1
2025-02-13T05:43:05.212Z,-0.0623,0.0014,0.0326,0.0587,0.0156,-0.0298,-30.9249,29.025,-25.3177,12.86182578,77.66470991,925.0079,-1
2025-02-13T05:43:05.222Z,-0.0942,-0.0108,-0.0021,0.0544,0.0175,-0.0199,-30.9249,29.025,-25.3177,12.86182578,77.66470991,925.0079,-1
2025-02-13T05:43:05.234Z,-0.0852,-0.0119,-0.0475,0.0416,0.016,-0.005,-30.9249,29.025,-25.3177,12.86182578,77.66470991,925.0079,-1
2025-02-13T05:43:05.242Z,-0.0731,-0.0132,-0.0699,0.0416,0.016,-0.005,-30.9249,29.025,-25.3177,12.86182578,77.66470991,925.0079,-1
2025-02-13T05:43:05.252Z,-0.0469,-0.0141,-0.0927,0.0304,0.0095,-0.0054,-30.9249,29.025,-25.3177,12.86182578,77.66470991,925.0079,-1
2025-02-13T05:43:05.262Z,-0.0309,-0.0155,-0.0995,0.0177,-0.0003,-0.0032,-30.9249,29.025,-25.3177,12.86182578,77.66470991,925.0079,-1
2025-02-13T05:43:05.272Z,-0.0185,-0.033,-0.0817,0.0138,-0.0006,-0.0037,-30.9249,29.025,-25.3177,12.86182578,77.66470991,925.0079,-1
2025-02-13T05:43:05.283Z,0.008,-0.0433,0,0.0196,0.0096,-0.003,-30.9249,29.025,-25.3177,12.86182578,77.66470991,925.0079,-1
2025-02-13T05:43:05.292Z,0.0388,-0.048,0.0306,0.025,0.0201,-0.0069,-30.9249,29.025,-25.3177,12.86182578,77.66470991,925.0079,-1
2025-02-13T05:43:05.302Z,0.0371,-0.0651,0.0458,0.0309,0.0245,-0.0159,-30.9249,29.025,-25.3177,12.86182578,77.66470991,925.0079,-1
2025-02-13T05:43:05.312Z,0.0127,-0.0606,0.0549,0.0322,0.0234,-0.0251,-30.9249,29.025,-25.3177,12.86182578,77.66470991,925.0079,-1
2025-02-13T05:43:05.322Z,-0.0348,-0.0051,0.07,0.036,0.022,-0.0214,-30.9249,29.025,-25.3177,12.86182578,77.66470991,925.0079,-1
2025-02-13T05:43:05.332Z,-0.0539,0.0287,0.102,0.0418,0.0177,-0.011,-30.9249,29.025,-25.3177,12.86182578,77.66470991,925.0079,-1
2025-02-13T05:43:05.342Z,-0.0558,0.0316,0.0864,0.0505,0.0147,0.0005,-30.9249,29.025,-25.3177,12.86182578,77.66470991,925.0079,-1
2025-02-13T05:43:05.352Z,-0.0152,0.0227,0.0223,0.0463,0.0051,0.0033,-30.9249,29.025,-25.3177,12.86182578,77.66470991,925.0079,-1
2025-02-13T05:43:05.362Z,-0.0112,-0.0146,-0.0627,0.0317,-0.0089,0.0011,-30.9249,29.025,-25.3177,12.86182578,77.66470991,925.0079,-1
2025-02-13T05:43:05.372Z,-0.0093,-0.0293,-0.0816,0.0163,-0.0202,-0.0029,-30.9249,29.025,-25.3177,12.86182578,77.66470991,925.0079,-1
2025-02-13T05:43:05.383Z,-0.0111,-0.0264,-0.0644,0.012,-0.024,-0.0049,-30.9249,29.025,-25.3177,12.86182578,77.66470991,925.0079,-1
2025-02-13T05:43:05.392Z,-0.0234,-0.0214,-0.0233,0.0146,-0.0307,-0.0032,-30.9249,29.025,-25.3177,12.86182578,77.66470991,925.0079,-1
2025-02-13T05:43:05.402Z,0.0079,-0.0295,-0.0293,0.0173,-0.0291,-0.0003,-30.9249,29.025,-25.3177,12.86182578,77.66470991,925.0079,-1
2025-02-13T05:43:05.412Z,0.0226,-0.0216,-0.062,0.0144,-0.0229,-0.0055,-30.9249,29.025,-25.3177,12.86182578,77.66470991,925.0079,-1
2025-02-13T05:43:05.422Z,0.033,-0.0327,-0.0938,0.0084,-0.0225,-0.0084,-30.9249,29.025,-25.3177,12.86182578,77.66470991,925.0079,-1
2025-02-13T05:43:05.432Z,0.0275,-0.0477,-0.1018,-0.0012,-0.0279,-0.0102,-30.9249,29.025,-25.3177,12.86182578,77.66470991,925.0079,-1
2025-02-13T05:43:05.442Z,0.0032,-0.0662,-0.1133,-0.0094,-0.0224,-0.0106,-30.9249,29.025,-25.3177,12.86182578,77.66470991,925.0079,-1
2025-02-13T05:43:05.452Z,0.0048,-0.0607,-0.0865,-0.012,-0.0077,-0.0111,-30.9249,29.025,-25.3177,12.86182578,77.66470991,925.0079,-1
2025-02-13T05:43:05.462Z,-0.0111,-0.0497,-0.0237,-0.0067,0.0053,-0.0106,-30.9249,29.025,-25.3177,12.86182578,77.66470991,925.0079,-1
2025-02-13T05:43:05.472Z,-0.0436,-0.0344,0.0343,0.004,0.0037,-0.009,-30.9249,29.025,-25.3177,12.86182578,77.66470991,925.0079,-1
2025-02-13T05:43:05.482Z,-0.0244,-0.0343,0.0403,0.0153,0.0052,-0.0064,-30.9249,29.025,-25.3177,12.86182578,77.66470991,925.0079,-1
2025-02-13T05:43:05.492Z,-0.0171,0.0027,0.0173,0.0198,0.0078,-0.0066,-30.9249,29.025,-25.3177,12.86182578,77.66470991,925.0079,-1
2025-02-13T05:43:05.502Z,0.0096,0.023,-0.0171,0.0223,0.0137,-0.006,-30.9249,29.025,-25.3177,12.86182578,77.66470991,925.0079,-1
2025-02-13T05:43:05.512Z,0.0051,0.0286,-0.06,0.0167,0.0181,-0.0044,-30.9249,29.025,-25.3177,12.86182578,77.66470991,925.0079,-1
2025-02-13T05:43:05.522Z,-0.0238,0.0247,-0.0782,0.0101,0.019,-0.0009,-30.9249,29.025,-25.3177,12.86182578,77.66470991,925.0079,-1
2025-02-13T05:43:05.532Z,-0.0637,0.0019,-0.0923,-0.0035,0.0192,0.0044,-30.9249,29.025,-25.3177,12.86182578,77.66470991,925.0079,-1
2025-02-13T05:43:05.542Z,-0.0727,-0.0149,-0.0771,-0.0094,0.0134,0.0118,-30.9249,29.025,-25.3177,12.86182578,77.66470991,925.0079,-1
2025-02-13T05:43:05.552Z,-0.0625,-0.0479,-0.0197,-0.0118,0.0004,0.0132,-30.9249,29.025,-25.3177,12.86182578,77.66470991,925.0079,-1
2025-02-13T05:43:05.562Z,-0.0489,-0.0713,-0.0074,-0.0187,-0.0109,0.0082,-30.9249,29.025,-25.3177,12.86182578,77.66470991,925.0079,-1
2025-02-13T05:43:05.572Z,-0.0436,-0.0954,-0.0059,-0.021,-0.0192,0.0042,-30.9249,29.025,-25.3177,12.86182578,77.66470991,925.0079,-1
2025-02-13T05:43:05.582Z,-0.0306,-0.0843,0.0398,-0.0213,-0.0201,0.0039,-30.9249,29.025,-25.3177,12.86182578,77.66470991,925.0079,-1
2025-02-13T05:43:05.592Z,-0.0128,-0.0508,0.0839,-0.0179,-0.0217,0.0057,-30.9249,29.025,-25.3177,12.86182578,77.66470991,925.0079,-1
2025-02-13T05:43:05.602Z,0.0131,-0.0386,0.086,-0.0143,-0.0207,0.0095,-30.9249,29.025,-25.3177,12.86182578,77.66470991,925.0079,-1
2025-02-13T05:43:05.612Z,0.0197,-0.0494,0.0979,-0.0087,-0.0166,0.0083,-30.9249,29.025,-25.3177,12.86182578,77.66470991,925.0079,-1
2025-02-13T05:43:05.622Z,0.0445,-0.0472,0.1094,-0.0023,-0.0157,0.0095,-30.9249,29.025,-25.3177,12.86182578,77.66470991,925.0079,-1
2025-02-13T05:43:05.633Z,0.0968,-0.038,0.1104,0.0091,-0.0076,0.0016,-30.9249,29.025,-25.3177,12.86182578,77.66470991,925.0079,-1
2025-02-13T05:43:05.642Z,0.1165,-0.0118,0.1292,0.0213,0.0053,-0.0102,-30.9249,29.025,-25.3177,12.86182578,77.66470991,925.0079,-1
2025-02-13T05:43:05.652Z,0.0773,-0.0302,0.1381,0.0317,0.0088,-0.0199,-30.9249,29.025,-25.3177,12.86182578,77.66470991,925.0079,-1
2025-02-13T05:43:05.662Z,-0.023,-0.0264,0.083,0.0405,-0.0019,-0.0184,-30.9249,29.025,-25.3177,12.86182578,77.66470991,925.0079,-1
2025-02-13T05:43:05.672Z,-0.0646,0.0096,0.0082,0.0386,-0.0118,-0.0068,-30.9249,29.025,-25.3177,12.86182578,77.66470991,925.0079,-1
2025-02-13T05:43:05.682Z,-0.0892,0.0004,-0.0768,0.0282,-0.0211,0.0056,-30.9249,29.025,-25.3177,12.86182578,77.66470991,925.0079,-1
2025-02-13T05:43:05.692Z,-0.0696,-0.0067,-0.1553,0.0109,-0.03,0.0159,-30.9249,29.025,-25.3177,12.86182578,77.66470991,925.0079,-1
2025-02-13T05:43:05.702Z,-0.038,-0.0305,-0.2233,-0.009,-0.034,0.0187,-30.9249,29.025,-25.3177,12.86182578,77.66470991,925.0079,-1
2025-02-13T05:43:05.712Z,-0.0206,-0.042,-0.2409,-0.0272,-0.0348,0.0177,-30.9249,29.025,-25.3177,12.86182578,77.66470991,925.0079,-1
2025-02-13T05:43:05.722Z,0.009,-0.0476,-0.2097,-0.0377,-0.0366,0.0138,-30.9249,29.025,-25.3177,12.86182578,77.66470991,925.0079,-1
2025-02-13T05:43:05.733Z,0.0214,-0.0518,-0.1694,-0.0407,-0.0307,0.0102,-30.9249,29.025,-25.3177,12.86182578,77.66470991,925.0079,-1
2025-02-13T05:43:05.742Z,0.0593,-0.0434,-0.1193,-0.039,-0.0137,0.0074,-30.9249,29.025,-25.3177,12.86182578,77.66470991,925.0079,-1
2025-02-13T05:43:05.752Z,0.0708,-0.0285,-0.0864,-0.0319,0.0107,0.0061,-30.9249,29.025,-25.3177,12.86182578,77.66470991,925.0079,-1
2025-02-13T05:43:05.762Z,0.0511,-0.0314,-0.0322,-0.019,0.0311,0.0038,-30.9249,29.025,-25.3177,12.86182578,77.66470991,925.0079,-1
2025-02-13T05:43:05.772Z,0.0337,-0.0438,0.0238,-0.007,0.0462,0.0036,-30.9249,29.025,-25.3177,12.86182578,77.66470991,925.0079,-1
2025-02-13T05:43:05.782Z,0.0001,-0.048,-0.0044,0.0004,0.0455,0.0054,-30.9249,29.025,-25.3177,12.86182578,77.66470991,925.0079,-1
2025-02-13T05:43:05.792Z,-0.01,-0.0558,-0.0322,-0.0031,0.0303,0.0075,-30.9249,29.025,-25.3177,12.86182578,77.66470991,925.0079,-1
2025-02-13T05:43:05.802Z,-0.0244,-0.0671,-0.068,-0.0178,0.0055,0.0084,-30.9249,29.025,-25.3177,12.86182578,77.66470991,925.0079,-1
2025-02-13T05:43:05.812Z,0.0141,-0.0591,-0.1154,-0.0369,-0.014,0.0074,-30.9249,29.025,-25.3177,12.86182578,77.66470991,925.0079,-1
2025-02-13T05:43:05.822Z,0.0592,-0.0606,-0.114,-0.0496,-0.0203,0.0031,-30.9249,29.025,-25.3177,12.86182578,77.66470991,925.0079,-1
2025-02-13T05:43:05.832Z,0.0684,-0.0805,-0.075,-0.0566,-0.0117,-0.0008,-30.9249,29.025,-25.3177,12.86182578,77.66470991,925.0079,-1
2025-02-13T05:43:05.842Z,0.0884,-0.0686,0.0068,-0.051,0.0084,-0.0053,-30.9249,29.025,-25.3177,12.86182578,77.66470991,925.0079,-1
2025-02-13T05:43:05.852Z,0.0821,-0.0615,0.0871,-0.037,0.0231,-0.0088,-30.9249,29.025,-25.3177,12.86182578,77.66470991,925.0079,-1
2025-02-13T05:43:05.862Z,0.044,-0.0724,0.0776,-0.0279,0.0224,-0.0109,-30.9249,29.025,-25.3177,12.86182578,77.66470991,925.0079,-1
2025-02-13T05:43:05.872Z,0.0125,-0.0568,0.0938,-0.0194,0.017,-0.0153,-30.9249,29.025,-25.3177,12.86182578,77.66470991,925.0079,-1
2025-02-13T05:43:05.882Z,0.0155,-0.0442,0.0908,-0.0166,0.0087,-0.0138,-30.9249,29.025,-25.3177,12.86182578,77.66470991,925.0079,-1
2025-02-13T05:43:05.892Z,0.0321,-0.0364,0.0447,-0.0178,0.0028,-0.0158,-30.9249,29.025,-25.3177,12.86182578,77.66470991,925.0079,-1
2025-02-13T05:43:05.902Z,0.0202,-0.0498,0.0119,-0.0245,0.0007,-0.0184,-30.9249,29.025,-25.3177,12.86182578,77.66470991,925.0079,-1
2025-02-13T05:43:05.912Z,-0.0078,-0.0379,-0.0066,-0.0305,-0.0128,-0.0203,-30.9249,29.025,-25.3177,12.86182578,77.66470991,925.0079,-1
2025-02-13T05:43:05.922Z,-0.0044,-0.02,0.0093,-0.0335,-0.0101,-0.0222,-30.9249,29.025,-25.3177,12.86182578,77.66470991,925.0079,-1
2025-02-13T05:43:05.932Z,-0.0197,-0.0094,0.0527,-0.0308,0.0019,-0.0169,-30.9249,29.025,-25.3177,12.86182578,77.66470991,925.0079,-1
2025-02-13T05:43:05.942Z,-0.0375,-0.0038,0.0858,-0.02,0.0143,-0.0126,-30.9249,29.025,-25.3177,12.86182578,77.66470991,925.0079,-1
2025-02-13T05:43:05.952Z,-0.0332,0.0174,0.1192,-0.0054,0.0235,-0.0132,-30.9249,29.025,-25.3177,12.86182578,77.66470991,925.0079,-1
2025-02-13T05:43:05.962Z,-0.0619,0.007,0.0789,-0.0013,0.0215,-0.0087,-30.9249,29.025,-25.3177,12.86182578,77.66470991,925.0079,-1
2025-02-13T05:43:05.972Z,-0.0849,0.007,0.0384,0.0004,0.0169,-0.0051,-30.9249,29.025,-25.3177,12.86182578,77.66470991,925.0079,-1
2025-02-13T05:43:05.982Z,-0.0737,0.0473,0.0429,-0.0027,0.0106,-0.0036,-30.9249,29.025,-25.3177,12.86182578,77.66470991,925.0079,-1
2025-02-13T05:43:05.992Z,-0.0774,0.0195,0.0442,-0.0098,0.0019,0.0006,-30.9249,29.025,-25.3177,12.86182578,77.66470991,925.0079,-1
2025-02-13T05:43:06.002Z,-0.0778,0.0181,0.0605,-0.0128,-0.0119,0.001,-30.9249,29.025,-25.3177,12.86182578,77.66470991,925.0079,-1
2025-02-13T05:43:06.012Z,-0.0642,0.0108,0.0418,-0.0164,-0.025,0.0018,-30.9249,29.025,-25.3177,12.86182578,77.66470991,925.0079,-1
2025-02-13T05:43:06.022Z,-0.0843,0.0025,0.0363,-0.0202,-0.0294,0.0051,-30.9249,29.025,-25.3177,12.86182578,77.66470991,925.0079,-1
2025-02-13T05:43:06.032Z,-0.0745,0.0264,0.0347,-0.0185,-0.0263,0.0109,-30.9249,29.025,-25.3177,12.86182578,77.66470991,925.0079,-1
2025-02-13T05:43:06.042Z,-0.0509,0.0191,0.0667,-0.0122,-0.0161,0.0167,-30.9249,29.025,-25.3177,12.86182578,77.66470991,925.0079,-1
2025-02-13T05:43:06.052Z,-0.0419,0.0025,0.0608,-0.0024,-0.0024,0.0169,-30.9249,29.025,-25.3177,12.86182578,77.66470991,925.0079,-1
2025-02-13T05:43:06.062Z,-0.0386,-0.0233,0.0547,0.0072,0.0105,0.0186,-30.9249,29.025,-25.3177,12.86182578,77.66470991,925.0079,-1
2025-02-13T05:43:06.072Z,-0.0477,-0.0073,0.0551,0.0176,0.016,0.0206,-30.9249,29.025,-25.3177,12.86182578,77.66470991,925.0079,-1
2025-02-13T05:43:06.082Z,-0.0637,-0.0273,0.0093,0.0189,0.0087,0.0214,-30.9249,29.025,-25.3177,12.86182578,77.66470991,925.0079,-1
2025-02-13T05:43:06.092Z,-0.0419,-0.0183,-0.0681,0.0098,-0.0059,0.02,-30.9249,29.025,-25.3177,12.86182578,77.66470991,925.0079,-1
2025-02-13T05:43:06.102Z,-0.0208,-0.0293,-0.1284,-0.0064,-0.0218,0.0173,-30.9249,29.025,-25.3177,12.86182578,77.66470991,925.0079,-1
2025-02-13T05:43:06.112Z,0.0099,-0.0262,-0.1685,-0.0265,-0.0328,0.0164,-30.9249,29.025,-25.3177,12.86182578,77.66470991,925.0079,-1
2025-02-13T05:43:06.122Z,0.0283,-0.0191,-0.1693,-0.0459,-0.037,0.0152,-30.9249,29.025,-25.3177,12.86182578,77.66470991,925.0079,-1
2025-02-13T05:43:06.133Z,0.0307,-0.0288,-0.108,-0.0532,-0.0201,0.0146,-30.9249,29.025,-25.3177,12.86182578,77.66470991,925.0079,-1
2025-02-13T05:43:06.142Z,-0.0269,-0.0531,-0.0065,-0.0434,-0.0026,0.0188,-30.9249,29.025,-25.3177,12.86182578,77.66470991,925.0079,-1
2025-02-13T05:43:06.152Z,-0.0466,-0.0464,0.0674,-0.0261,0.0092,0.0297,-30.9249,29.025,-25.3177,12.86182578,77.66470991,925.0079,-1
2025-02-13T05:43:06.162Z,-0.0384,-0.0348,0.0615,-0.0167,0.0042,0.0334,-30.9249,29.025,-25.3177,12.86182578,77.66470991,925.0079,-1
2025-02-13T05:43:06.172Z,0.005,-0.0444,-0.0054,-0.0207,-0.0079,0.0306,-30.9249,29.025,-25.3177,12.86182578,77.66470991,925.0079,-1
2025-02-13T05:43:06.182Z,0.0858,-0.0335,-0.0633,-0.033,-0.0214,0.0185,-30.9249,29.025,-25.3177,12.86182578,77.66470991,925.0079,-1
2025-02-13T05:43:06.192Z,0.1458,-0.0283,-0.0911,-0.051,-0.0383,0.0002,-30.9249,29.025,-25.3177,12.86182578,77.66470991,925.0079,-1
2025-02-13T05:43:06.202Z,0.1234,-0.0128,-0.1618,-0.077,-0.0666,-0.0145,-30.9249,29.025,-25.3177,12.86182578,77.66470991,925.0079,-1
2025-02-13T05:43:06.212Z,0.0249,-0.0597,-0.1343,-0.0946,-0.0701,-0.0198,-30.9249,29.025,-25.3177,12.86182578,77.66470991,925.0079,-1
2025-02-13T05:43:06.222Z,-0.096,-0.0662,-0.0609,-0.0947,-0.0779,-0.0081,-30.9249,29.025,-25.3177,12.86182578,77.66470991,925.0079,-1
2025-02-13T05:43:06.240Z,-0.1263,-0.0256,-0.0252,-0.0858,-0.0702,0.0131,-30.9249,29.025,-25.3177,12.86182578,77.66470991,925.0079,-1
2025-02-13T05:43:06.243Z,-0.1194,-0.0416,-0.0008,-0.0753,-0.0497,0.0359,-30.9249,29.025,-25.3177,12.86182578,77.66470991,925.0079,-1
2025-02-13T05:43:06.252Z,-0.0269,-0.0444,-0.0216,-0.0677,-0.0275,0.0429,-30.9249,29.025,-25.3177,12.86182578,77.66470991,925.0079,-1
2025-02-13T05:43:06.262Z,0.1017,-0.0443,-0.056,-0.0644,-0.0182,0.03,-30.9249,29.025,-25.3177,12.86182578,77.66470991,925.0079,-1
2025-02-13T05:43:06.272Z,0.1709,-0.0599,-0.0606,-0.0669,-0.0107,0.0073,-30.9249,29.025,-25.3177,12.86182578,77.66470991,925.0079,-1
2025-02-13T05:43:06.282Z,0.1686,-0.0711,-0.0655,-0.0706,-0.0167,-0.0147,-30.9249,29.025,-25.3177,12.86182578,77.66470991,925.0079,-1
2025-02-13T05:43:06.292Z,0.1081,-0.0704,-0.0604,-0.0746,-0.0243,-0.0294,-30.9249,29.025,-25.3177,12.86182578,77.66470991,925.0079,-1
2025-02-13T05:43:06.302Z,-0.004,-0.0323,-0.0078,-0.0716,-0.0329,-0.0284,-30.9249,29.025,-25.3177,12.86182578,77.66470991,925.0079,-1
2025-02-13T05:43:06.312Z,-0.0685,0.0062,-0.0046,-0.0699,-0.0266,-0.013,-30.9249,29.025,-25.3177,12.86182578,77.66470991,925.0079,-1
2025-02-13T05:43:06.322Z,-0.1106,0.0054,-0.0133,-0.0713,-0.0227,0.0018,-30.9249,29.025,-25.3177,12.86182578,77.66470991,925.0079,-1
2025-02-13T05:43:06.333Z,-0.1292,-0.0244,-0.0294,-0.077,-0.0126,0.0145,-30.9249,29.025,-25.3177,12.86182578,77.66470991,925.0079,-1
2025-02-13T05:43:06.342Z,-0.078,-0.0335,0.0201,-0.0765,-0.0049,0.0204,-30.9249,29.025,-25.3177,12.86182578,77.66470991,925.0079,-1
2025-02-13T05:43:06.352Z,-0.0142,-0.0194,0.0611,-0.0732,-0.0093,0.02,-30.9249,29.025,-25.3177,12.86182578,77.66470991,925.0079,-1
2025-02-13T05:43:06.362Z,0.0021,-0.007,0.0906,-0.0692,-0.0182,0.0163,-30.9249,29.025,-25.3177,12.86182578,77.66470991,925.0079,-1
2025-02-13T05:43:06.372Z,0.0461,0.021,0.0669,-0.0675,-0.029,0.0089,-30.9249,29.025,-25.3177,12.86182578,77.66470991,925.0079,-1
2025-02-13T05:43:06.384Z,0.0669,0.0089,0.0637,-0.0653,-0.0348,0.0007,-30.9249,29.025,-25.3177,12.86182578,77.66470991,925.0079,-1
2025-02-13T05:43:06.392Z,0.0342,0.014,0.0552,-0.0613,-0.0343,-0.0032,-30.9249,29.025,-25.3177,12.86182578,77.66470991,925.0079,-1
2025-02-13T05:43:06.402Z,-0.0123,0.0005,0.0378,-0.0565,-0.0311,-0.0029,-30.9249,29.025,-25.3177,12.86182578,77.66470991,925.0079,-1
2025-02-13T05:43:06.412Z,-0.0571,-0.0117,0.0473,-0.0568,-0.0334,0.0003,-30.9249,29.025,-25.3177,12.86182578,77.66470991,925.0079,-1
2025-02-13T05:43:06.422Z,-0.1047,-0.0053,0.0547,-0.0518,-0.0336,0.0077,-30.9249,29.025,-25.3177,12.86182578,77.66470991,925.0079,-1
2025-02-13T05:43:06.433Z,-0.127,-0.0007,0.062,-0.0452,-0.0389,0.0201,-30.9249,29.025,-25.3177,12.86182578,77.66470991,925.0079,-1
2025-02-13T05:43:06.442Z,-0.1126,-0.0033,0.048,-0.0413,-0.0319,0.0318,-30.9249,29.025,-25.3177,12.86182578,77.66470991,925.0079,-1
2025-02-13T05:43:06.452Z,-0.0494,-0.0058,0.057,-0.0345,-0.0234,0.0332,-30.9249,29.025,-25.3177,12.86182578,77.66470991,925.0079,-1
2025-02-13T05:43:06.462Z,0.0085,-0.0266,0.0456,-0.0245,-0.0102,0.0265,-30.9249,29.025,-25.3177,12.86182578,77.66470991,925.0079,-1
2025-02-13T05:43:06.472Z,0.0313,-0.0226,0.0302,-0.0226,-0.001,0.019,-30.9249,29.025,-25.3177,12.86182578,77.66470991,925.0079,-1
2025-02-13T05:43:06.483Z,-0.0058,-0.0406,-0.0064,-0.0267,-0.0012,0.0129,-30.9249,29.025,-25.3177,12.86182578,77.66470991,925.0079,-1
2025-02-13T05:43:06.492Z,-0.0563,0.0024,-0.0264,-0.0347,-0.0099,0.0125,-30.9249,29.025,-25.3177,12.86182578,77.66470991,925.0079,-1
2025-02-13T05:43:06.502Z,-0.0779,0.0251,-0.0115,-0.0437,-0.0228,0.0201,-30.9249,29.025,-25.3177,12.86182578,77.66470991,925.0079,-1
2025-02-13T05:43:06.512Z,-0.0833,0.0227,0.0089,-0.0448,-0.0317,0.0302,-30.9249,29.025,-25.3177,12.86182578,77.66470991,925.0079,-1
2025-02-13T05:43:06.522Z,-0.0494,0.0114,0.0176,-0.0465,-0.0423,0.0342,-30.9249,29.025,-25.3177,12.86182578,77.66470991,925.0079,-1
2025-02-13T05:43:06.533Z,-0.0212,-0.0028,-0.0003,-0.0499,-0.0504,0.0322,-30.9249,29.025,-25.3177,12.86182578,77.66470991,925.0079,-1
2025-02-13T05:43:06.542Z,-0.0171,-0.0461,-0.0424,-0.0565,-0.0553,0.0307,-30.9249,29.025,-25.3177,12.86182578,77.66470991,925.0079,-1
2025-02-13T05:43:06.552Z,-0.0043,-0.0719,-0.0407,-0.0612,-0.05,0.0315,-30.9249,29.025,-25.3177,12.86182578,77.66470991,925.0079,-1
2025-02-13T05:43:06.562Z,0.0036,-0.0607,-0.0299,-0.0632,-0.0456,0.0313,-30.9249,29.025,-25.3177,12.86182578,77.66470991,925.0079,-1
2025-02-13T05:43:06.572Z,0.0365,-0.0549,-0.0117,-0.0654,-0.0488,0.0302,-30.9249,29.025,-25.3177,12.86182578,77.66470991,925.0079,-1
2025-02-13T05:43:06.583Z,0.0491,-0.0602,-0.0373,-0.0721,-0.0582,0.0248,-30.9249,29.025,-25.3177,12.86182578,77.66470991,925.0079,-1
2025-02-13T05:43:06.592Z,0.0717,-0.0506,-0.0136,-0.0802,-0.0703,0.0174,-30.9249,29.025,-25.3177,12.86182578,77.66470991,925.0079,-1
2025-02-13T05:43:06.602Z,0.0843,-0.0555,0.0026,-0.0828,-0.0753,0.0068,-30.9249,29.025,-25.3177,12.86182578,77.66470991,925.0079,-1
2025-02-13T05:43:06.612Z,0.0568,-0.0733,0.0132,-0.0795,-0.0641,0.0025,-30.9249,29.025,-25.3177,12.86182578,77.66470991,925.0079,-1
2025-02-13T05:43:06.622Z,-0.0126,-0.0724,0.0661,-0.0643,-0.0466,0.0061,-30.9249,29.025,-25.3177,12.86182578,77.66470991,925.0079,-1
2025-02-13T05:43:06.633Z,-0.0554,-0.0439,0.0714,-0.0461,-0.0347,0.0175,-30.9249,29.025,-25.3177,12.86182578,77.66470991,925.0079,-1
2025-02-13T05:43:06.642Z,-0.0282,-0.0553,0.0494,-0.0361,-0.0145,0.0287,-30.9249,29.025,-25.3177,12.86182578,77.66470991,925.0079,-1
2025-02-13T05:43:06.652Z,0.0541,-0.0565,0.0309,-0.0283,-0.0001,0.0284,-30.9249,29.025,-25.3177,12.86182578,77.66470991,925.0079,-1
2025-02-13T05:43:06.662Z,0.1129,-0.0556,0.0192,-0.0263,0.0075,0.0187,-30.9249,29.025,-25.3177,12.86182578,77.66470991,925.0079,-1
2025-02-13T05:43:06.672Z,0.1401,-0.0659,0.0422,-0.0262,-0.0012,0.0034,-30.9249,29.025,-25.3177,12.86182578,77.66470991,925.0079,-1
2025-02-13T05:43:06.682Z,0.1229,-0.085,0.046,-0.0266,-0.0117,-0.0098,-30.9249,29.025,-25.3177,12.86182578,77.66470991,925.0079,-1
2025-02-13T05:43:06.692Z,0.0919,-0.0665,0.0602,-0.0225,-0.0186,-0.0196,-30.9249,29.025,-25.3177,12.86182578,77.66470991,925.0079,-1
2025-02-13T05:43:06.702Z,0.0385,-0.0721,0.0491,-0.0206,-0.0232,-0.0191,-30.9249,29.025,-25.3177,12.86182578,77.66470991,925.0079,-1
2025-02-13T05:43:06.712Z,0.0134,-0.0537,0.0451,-0.0164,-0.0195,-0.014,-30.9249,29.025,-25.3177,12.86182578,77.66470991,925.0079,-1
2025-02-13T05:43:06.722Z,0.0145,-0.0426,0.0324,-0.0101,-0.0119,-0.0132,-30.9249,29.025,-25.3177,12.86182578,77.66470991,925.0079,-1
2025-02-13T05:43:06.732Z,-0.0121,-0.0308,0.0155,-0.0039,-0.0023,-0.0089,-30.9249,29.025,-25.3177,12.86182578,77.66470991,925.0079,-1
2025-02-13T05:43:06.742Z,-0.0233,-0.0297,0.0012,0.0005,0.0043,-0.0036,-30.9249,29.025,-25.3177,12.86182578,77.66470991,925.0079,-1
2025-02-13T05:43:06.752Z,-0.0247,-0.0211,-0.0458,0.0006,0.0034,-0.0007,-30.9249,29.025,-25.3177,12.86182578,77.66470991,925.0079,-1
2025-02-13T05:43:06.762Z,-0.0208,-0.0261,-0.0804,-0.0034,0.0022,0.0025,-30.9249,29.025,-25.3177,12.86182578,77.66470991,925.0079,-1
2025-02-13T05:43:06.772Z,0.0035,-0.0503,-0.0964,-0.0113,-0.0057,-0.003,-30.9249,29.025,-25.3177,12.86182578,77.66470991,925.0079,-1
2025-02-13T05:43:06.783Z,0.0084,-0.0501,-0.0956,-0.0172,-0.0142,-0.0074,-30.9249,29.025,-25.3177,12.86182578,77.66470991,925.0079,-1
2025-02-13T05:43:06.792Z,0.0036,-0.0347,-0.1043,-0.0249,-0.0176,-0.0112,-30.9249,29.025,-25.3177,12.86182578,77.66470991,925.0079,-1
2025-02-13T05:43:06.802Z,-0.0436,-0.0205,-0.0897,-0.032,-0.0135,-0.0092,-30.9249,29.025,-25.3177,12.86182578,77.66470991,925.0079,-1
2025-02-13T05:43:06.812Z,-0.0786,-0.0066,-0.0338,-0.0331,-0.0114,-0.0022,-30.9249,29.025,-25.3177,12.86182578,77.66470991,925.0079,-1
2025-02-13T05:43:06.822Z,-0.0735,0.0035,-0.0366,-0.0311,-0.0113,0.0068,-30.9249,29.025,-25.3177,12.86182578,77.66470991,925.0079,-1
2025-02-13T05:43:06.833Z,-0.0534,0.0108,-0.0272,-0.0328,-0.0033,0.0117,-30.9249,29.025,-25.3177,12.86182578,77.66470991,925.0079,-1
2025-02-13T05:43:06.842Z,-0.0026,0.0122,-0.0209,-0.0326,-0.0022,0.0111,-30.9249,29.025,-25.3177,12.86182578,77.66470991,925.0079,-1
2025-02-13T05:43:06.852Z,0.0344,-0.0072,-0.0388,-0.038,-0.0092,0.0025,-30.9249,29.025,-25.3177,12.86182578,77.66470991,925.0079,-1
2025-02-13T05:43:06.862Z,0.0091,-0.0175,-0.0396,-0.0489,-0.0189,-0.0069,-30.9249,29.025,-25.3177,12.86182578,77.66470991,925.0079,-1
2025-02-13T05:43:06.872Z,-0.0298,-0.0101,-0.0452,-0.0568,-0.0353,-0.0117,-30.9249,29.025,-25.3177,12.86182578,77.66470991,925.0079,-1
2025-02-13T05:43:06.882Z,-0.0681,0.0161,-0.0169,-0.0611,-0.0387,-0.0051,-30.9249,29.025,-25.3177,12.86182578,77.66470991,925.0079,-1
2025-02-13T05:43:06.892Z,-0.1035,0.0116,0.0314,-0.0548,-0.0346,0.0063,-30.9249,29.025,-25.3177,12.86182578,77.66470991,925.0079,-1
2025-02-13T05:43:06.903Z,-0.1235,0.0275,0.0554,-0.0441,-0.021,0.0235,-30.9249,29.025,-25.3177,12.86182578,77.66470991,925.0079,-1
2025-02-13T05:43:06.912Z,-0.1122,0.004,0.0525,-0.0339,-0.0081,0.0366,-30.9249,29.025,-25.3177,12.86182578,77.66470991,925.0079,-1
2025-02-13T05:43:06.922Z,-0.0424,-0.0231,0.0292,-0.0284,-0.0028,0.0379,-30.9249,29.025,-25.3177,12.86182578,77.66470991,925.0079,-1
2025-02-13T05:43:06.932Z,0.0213,-0.0357,0.0007,-0.0346,-0.0117,0.0314,-30.9249,29.025,-25.3177,12.86182578,77.66470991,925.0079,-1
2025-02-13T05:43:06.942Z,0.052,-0.0597,-0.0203,-0.0395,-0.0247,0.0181,-30.9249,29.025,-25.3177,12.86182578,77.66470991,925.0079,-1
2025-02-13T05:43:06.952Z,0.0536,-0.0622,0.0189,-0.0457,-0.0445,0.0075,-30.9249,29.025,-25.3177,12.86182578,77.66470991,925.0079,-1
2025-02-13T05:43:06.962Z,0.0541,-0.0301,0.0098,-0.0558,-0.0676,0.0021,-30.9249,29.025,-25.3177,12.86182578,77.66470991,925.0079,-1
2025-02-13T05:43:06.972Z,0.0275,-0.0441,0.0098,-0.0607,-0.0598,0.0018,-30.9249,29.025,-25.3177,12.86182578,77.66470991,925.0079,-1
2025-02-13T05:43:06.982Z,0.0132,-0.0487,0.0419,-0.0566,-0.0468,0.0044,-30.9249,29.025,-25.3177,12.86182578,77.66470991,925.0079,-1
2025-02-13T05:43:06.992Z,0.0024,-0.0132,0.1289,-0.0373,-0.0148,0.0097,-30.9249,29.025,-25.3177,12.86182578,77.66470991,925.0079,-1
2025-02-13T05:43:07.002Z,0.0021,-0.0368,0.21,-0.007,0.0172,0.0146,-30.9249,29.025,-25.3177,12.86182578,77.66470991,925.0079,-1
2025-02-13T05:43:07.012Z,0.0342,-0.0392,0.2105,0.023,0.0412,0.0124,-30.9249,29.025,-25.3177,12.86182578,77.66470991,925.0079,-1
2025-02-13T05:43:07.022Z,0.0457,-0.0557,0.2113,0.0434,0.0429,0.006,-30.9249,29.025,-25.3177,12.86182578,77.66470991,925.0079,-1
2025-02-13T05:43:07.033Z,0.0345,-0.083,0.1549,0.0565,0.0295,-0.0052,-30.9249,29.025,-25.3177,12.86182578,77.66470991,925.0079,-1
2025-02-13T05:43:07.042Z,0.0075,-0.0823,0.0955,0.059,0.0188,-0.008,-30.9249,29.025,-25.3177,12.86182578,77.66470991,925.0079,-1
2025-02-13T05:43:07.052Z,-0.0064,-0.0483,0.0362,0.0581,0.0097,-0.006,-30.9249,29.025,-25.3177,12.86182578,77.66470991,925.0079,-1
2025-02-13T05:43:07.063Z,-0.002,-0.0072,-0.0279,0.05,0.0155,-0.0046,-30.9249,29.025,-25.3177,12.86182578,77.66470991,925.0079,-1
2025-02-13T05:43:07.072Z,-0.0153,-0.0087,-0.0844,0.0422,0.0189,0.0018,-30.9249,29.025,-25.3177,12.86182578,77.66470991,925.0079,-1
2025-02-13T05:43:07.083Z,-0.0212,-0.0101,-0.0701,0.0361,0.0249,0.0071,-30.9249,29.025,-25.3177,12.86182578,77.66470991,925.0079,-1
2025-02-13T05:43:07.092Z,0.0084,0.0082,-0.0474,0.035,0.0313,0.0073,-30.9249,29.025,-25.3177,12.86182578,77.66470991,925.0079,-1
2025-02-13T05:43:07.103Z,0.0123,-0.0422,-0.0624,0.0311,0.0276,0.0078,-30.9249,29.025,-25.3177,12.86182578,77.66470991,925.0079,-1
2025-02-13T05:43:07.112Z,0.0061,-0.0753,-0.0915,0.0213,0.0105,0.0063,-30.9249,29.025,-25.3177,12.86182578,77.66470991,925.0079,-1
2025-02-13T05:43:07.122Z,0.0265,-0.0765,-0.1127,0.0097,0.001,0.0009,-30.9249,29.025,-25.3177,12.86182578,77.66470991,925.0079,-1
2025-02-13T05:43:07.132Z,0.0234,-0.0899,-0.1006,-0.0002,-0.008,-0.0064,-30.9249,29.025,-25.3177,12.86182578,77.66470991,925.0079,-1
2025-02-13T05:43:07.142Z,-0.0061,-0.0608,-0.1303,-0.0111,-0.0066,-0.0033,-30.9249,29.025,-25.3177,12.86182578,77.66470991,925.0079,-1
2025-02-13T05:43:07.153Z,-0.0056,-0.0492,-0.0991,-0.0169,0.0042,0.002,-30.9249,29.025,-25.3177,12.86182578,77.66470991,925.0079,-1
2025-02-13T05:43:07.163Z,-0.0259,-0.053,-0.0357,-0.0172,0.0091,0.0099,-30.9249,29.025,-25.3177,12.86182578,77.66470991,925.0079,-1
2025-02-13T05:43:07.173Z,-0.0038,-0.0423,0.0097,-0.0115,0.0173,0.013,-30.9249,29.025,-25.3177,12.86182578,77.66470991,925.0079,-1
2025-02-13T05:43:07.183Z,0.039,-0.044,0.0596,-0.0023,0.0201,0.0063,-30.9249,29.025,-25.3177,12.86182578,77.66470991,925.0079,-1
2025-02-13T05:43:07.193Z,0.1089,-0.0448,0.0504,0.0026,0.0195,-0.0055,-30.9249,29.025,-25.3177,12.86182578,77.66470991,925.0079,-1
2025-02-13T05:43:07.202Z,0.0731,-0.0631,0.0446,0.0005,0.0101,-0.0172,-30.9249,29.025,-25.3177,12.86182578,77.66470991,925.0079,-1
2025-02-13T05:43:07.212Z,0.0102,-0.0554,0.0184,-0.0046,-0.0099,-0.0215,-30.9249,29.025,-25.3177,12.86182578,77.66470991,925.0079,-1
2025-02-13T05:43:07.222Z,-0.0199,-0.0209,0.0111,-0.0079,-0.0236,-0.0169,-30.9249,29.025,-25.3177,12.86182578,77.66470991,925.0079,-1
2025-02-13T05:43:07.233Z,-0.0175,-0.0146,-0.0091,-0.0105,-0.0207,-0.0084,-30.9249,29.025,-25.3177,12.86182578,77.66470991,925.0079,-1
2025-02-13T05:43:07.243Z,-0.0142,-0.0225,-0.0234,-0.0152,-0.0024,-0.0024,-30.9249,29.025,-25.3177,12.86182578,77.66470991,925.0079,-1
2025-02-13T05:43:07.252Z,0.0241,-0.0382,-0.0117,-0.0112,0.0141,-0.0035,-30.9249,29.025,-25.3177,12.86182578,77.66470991,925.0079,-1
2025-02-13T05:43:07.263Z,0.054,-0.0606,0.0298,-0.0047,0.0228,-0.0069,-30.9249,29.025,-25.3177,12.86182578,77.66470991,925.0079,-1
2025-02-13T05:43:07.273Z,0.0587,-0.0727,0.0465,0.0069,0.0266,-0.0127,-30.9249,29.025,-25.3177,12.86182578,77.66470991,925.0079,-1
2025-02-13T05:43:07.289Z,0.0482,-0.0751,0.0655,0.0126,0.0222,-0.0224,-30.9249,29.025,-25.3177,12.86182578,77.66470991,925.0079,-1
2025-02-13T05:43:07.293Z,0.0141,-0.0637,0.0524,0.0181,0.0158,-0.0252,-30.9249,29.025,-25.3177,12.86182578,77.66470991,925.0079,-1
2025-02-13T05:43:07.302Z,-0.0154,-0.0285,0.0433,0.0208,0.0103,-0.0242,-30.9249,29.025,-25.3177,12.86182578,77.66470991,925.0079,-1
2025-02-13T05:43:07.313Z,-0.0209,-0.0112,0.0283,0.0206,0.0113,-0.0184,-30.9249,29.025,-25.3177,12.86182578,77.66470991,925.0079,-1
2025-02-13T05:43:07.322Z,-0.0291,0.0008,0.0109,0.0219,0.0132,-0.0127,-30.9249,29.025,-25.3177,12.86182578,77.66470991,925.0079,-1
2025-02-13T05:43:07.333Z,-0.0259,-0.0289,-0.023,0.0206,0.0111,-0.0095,-30.9249,29.025,-25.3177,12.86182578,77.66470991,925.0079,-1
2025-02-13T05:43:07.343Z,0.0219,-0.028,-0.0479,0.0121,0.012,-0.0093,-30.9249,29.025,-25.3177,12.86182578,77.66470991,925.0079,-1
2025-02-13T05:43:07.353Z,0.0325,-0.0246,-0.065,0.0054,0.0094,-0.0157,-30.9249,29.025,-25.3177,12.86182578,77.66470991,925.0079,-1
2025-02-13T05:43:07.364Z,0.0428,-0.0491,-0.0399,0.0042,0.0103,-0.0231,-30.9249,29.025,-25.3177,12.86182578,77.66470991,925.0079,-1
2025-02-13T05:43:07.373Z,-0.0026,-0.037,0.0133,0.0047,0.0074,-0.0271,-30.9249,29.025,-25.3177,12.86182578,77.66470991,925.0079,-1
2025-02-13T05:43:07.383Z,-0.055,-0.0231,0.0158,0.0094,0.004,-0.0241,-30.9249,29.025,-25.3177,12.86182578,77.66470991,925.0079,-1
2025-02-13T05:43:07.393Z,-0.1055,-0.0164,0.0213,0.0123,0.0075,-0.0174,-30.9249,29.025,-25.3177,12.86182578,77.66470991,925.0079,-1
2025-02-13T05:43:07.403Z,-0.1444,-0.0038,-0.0133,0.0108,0.0071,-0.0029,-30.9249,29.025,-25.3177,12.86182578,77.66470991,925.0079,-1
2025-02-13T05:43:07.415Z,-0.1313,0.0073,-0.0226,0.0066,0.0051,0.0062,-30.9249,29.025,-25.3177,12.86182578,77.66470991,925.0079,-1
2025-02-13T05:43:07.423Z,-0.0717,0.0235,-0.0163,-0.0002,0.0003,0.0117,-30.9249,29.025,-25.3177,12.86182578,77.66470991,925.0079,-1
2025-02-13T05:43:07.433Z,-0.0043,0.0217,-0.0438,-0.0094,-0.0007,0.0067,-30.9249,29.025,-25.3177,12.86182578,77.66470991,925.0079,-1
2025-02-13T05:43:07.443Z,0.0149,0.0159,0.0056,-0.0108,-0.0006,-0.0014,-30.9249,29.025,-25.3177,12.86182578,77.66470991,925.0079,-1
2025-02-13T05:43:07.453Z,0.021,0.0137,0.0576,0,-0.0021,-0.006,-30.9249,29.025,-25.3177,12.86182578,77.66470991,925.0079,-1
2025-02-13T05:43:07.465Z,-0.0057,-0.0095,0.1035,0.0131,0.0018,-0.0064,-30.9249,29.025,-25.3177,12.86182578,77.66470991,925.0079,-1
2025-02-13T05:43:07.473Z,-0.0423,-0.0214,0.0861,0.0262,0.007,-0.0016,-30.9249,29.025,-25.3177,12.86182578,77.66470991,925.0079,-1
2025-02-13T05:43:07.483Z,-0.0504,-0.0294,0.0111,0.0315,0.0145,0.0047,-30.9249,29.025,-25.3177,12.86182578,77.66470991,925.0079,-1
2025-02-13T05:43:07.493Z,-0.0483,-0.051,-0.0152,0.0308,0.0213,0.012,-30.9249,29.025,-25.3177,12.86182578,77.66470991,925.0079,-1
2025-02-13T05:43:07.503Z,-0.0186,-0.0393,-0.0428,0.0237,0.0304,0.0169,-30.9249,29.025,-25.3177,12.86182578,77.66470991,925.0079,-1
2025-02-13T05:43:07.515Z,0.0132,-0.0392,-0.0566,0.0164,0.031,0.0164,-30.9249,29.025,-25.3177,12.86182578,77.66470991,925.0079,-1
2025-02-13T05:43:07.523Z,0.0442,-0.063,-0.0326,0.0164,0.0335,0.009,-30.9249,29.025,-25.3177,12.86182578,77.66470991,925.0079,-1
2025-02-13T05:43:07.533Z,0.071,-0.0793,0.0379,0.0236,0.0379,0.0011,-30.9249,29.025,-25.3177,12.86182578,77.66470991,925.0079,-1
2025-02-13T05:43:07.542Z,0.071,-0.0793,0.0379,0.0238,0.0183,-0.0056,-30.9249,29.025,-25.3177,12.86182578,77.66470991,925.0079,-1
2025-02-13T05:43:07.553Z,0.0058,-0.0655,-0.0297,0.0138,0.006,-0.01,-30.9249,29.025,-25.3177,12.86182578,77.66470991,925.0079,-1
2025-02-13T05:43:07.565Z,-0.0301,-0.0545,-0.042,-0.0033,-0.0068,-0.004,-30.9249,29.025,-25.3177,12.86182578,77.66470991,925.0079,-1
2025-02-13T05:43:07.573Z,-0.0265,-0.028,-0.0556,-0.0157,-0.0188,0.0021,-30.9249,29.025,-25.3177,12.86182578,77.66470991,925.0079,-1
2025-02-13T05:43:07.582Z,-0.0265,-0.028,-0.0556,-0.0219,-0.0228,0.008,-30.9249,29.025,-25.3177,12.86182578,77.66470991,925.0079,-1
2025-02-13T05:43:07.594Z,0.0161,-0.0342,0.0006,-0.0186,-0.0219,0.0117,-30.9249,29.025,-25.3177,12.86182578,77.66470991,925.0079,-1
2025-02-13T05:43:07.602Z,0.0161,-0.0342,0.0006,-0.0106,-0.0116,0.0054,-30.9249,29.025,-25.3177,12.86182578,77.66470991,925.0079,-1
2025-02-13T05:43:07.615Z,0.0862,-0.0704,0.0623,0.0031,0.0022,-0.0044,-30.9249,29.025,-25.3177,12.86182578,77.66470991,925.0079,-1
2025-02-13T05:43:07.622Z,0.0862,-0.0704,0.0623,0.0172,0.0091,-0.0146,-30.9249,29.025,-25.3177,12.86182578,77.66470991,925.0079,-1
2025-02-13T05:43:07.632Z,0.1157,-0.07,0.0797,0.0214,0.0144,-0.0286,-30.9249,29.025,-25.3177,12.86182578,77.66470991,925.0079,-1
2025-02-13T05:43:07.642Z,0.1038,-0.0543,0.0519,0.0193,0.0065,-0.0353,-30.9249,29.025,-25.3177,12.86182578,77.66470991,925.0079,-1
2025-02-13T05:43:07.652Z,0.0092,-0.0408,-0.0093,0.0146,-0.0027,-0.0285,-30.9249,29.025,-25.3177,12.86182578,77.66470991,925.0079,-1
2025-02-13T05:43:07.665Z,-0.0909,-0.0055,-0.0723,0.0048,-0.0045,-0.0133,-30.9249,29.025,-25.3177,12.86182578,77.66470991,925.0079,-1
2025-02-13T05:43:07.672Z,-0.0909,-0.0055,-0.0723,-0.0043,-0.0029,0.002,-30.9249,29.025,-25.3177,12.86182578,77.66470991,925.0079,-1
2025-02-13T05:43:07.682Z,-0.0972,-0.0132,-0.097,-0.0124,-0.0038,0.0108,-30.9249,29.025,-25.3177,12.86182578,77.66470991,925.0079,-1
2025-02-13T05:43:07.692Z,-0.0622,-0.0157,-0.1117,-0.0214,-0.0074,0.0082,-30.9249,29.025,-25.3177,12.86182578,77.66470991,925.0079,-1
2025-02-13T05:43:07.702Z,-0.0204,-0.0433,-0.074,-0.0241,-0.0086,0.0012,-30.9249,29.025,-25.3177,12.86182578,77.66470991,925.0079,-1
2025-02-13T05:43:07.715Z,0.0612,-0.0482,0.0031,-0.02,-0.0115,-0.0105,-30.9249,29.025,-25.3177,12.86182578,77.66470991,925.0079,-1
2025-02-13T05:43:07.722Z,0.0612,-0.0482,0.0031,-0.0145,-0.0112,-0.0233,-30.9249,29.025,-25.3177,12.86182578,77.66470991,925.0079,-1
2025-02-13T05:43:07.732Z,0.069,-0.0391,0.0372,-0.0032,0.0043,-0.027,-30.9249,29.025,-25.3177,12.86182578,77.66470991,925.0079,-1
2025-02-13T05:43:07.742Z,0.0176,-0.0344,0.0591,0.0109,0.0246,-0.0192,-30.9249,29.025,-25.3177,12.86182578,77.66470991,925.0079,-1
2025-02-13T05:43:07.752Z,-0.0373,-0.0387,0.083,0.0213,0.0376,-0.0041,-30.9249,29.025,-25.3177,12.86182578,77.66470991,925.0079,-1
2025-02-13T05:43:07.764Z,-0.089,0.0042,0.0661,0.0233,0.033,0.0077,-30.9249,29.025,-25.3177,12.86182578,77.66470991,925.0079,-1
2025-02-13T05:43:07.772Z,-0.089,0.0042,0.0661,0.0177,0.0135,0.0114,-30.9249,29.025,-25.3177,12.86182578,77.66470991,925.0079,-1
2025-02-13T05:43:07.782Z,-0.0739,-0.0146,0.0177,0.0038,-0.0118,0.0083,-30.9249,29.025,-25.3177,12.86182578,77.66470991,925.0079,-1
2025-02-13T05:43:07.792Z,-0.0168,-0.0237,-0.0335,-0.0077,-0.024,-0.0033,-30.9249,29.025,-25.3177,12.86182578,77.66470991,925.0079,-1
2025-02-13T05:43:07.802Z,0.0522,-0.0305,-0.0514,-0.0146,-0.0243,-0.0115,-30.9249,29.025,-25.3177,12.86182578,77.66470991,925.0079,-1
2025-02-13T05:43:07.814Z,0.0211,-0.0286,-0.0131,-0.0121,-0.0077,-0.0151,-30.9249,29.025,-25.3177,12.86182578,77.66470991,925.0079,-1
2025-02-13T05:43:07.822Z,0.0211,-0.0286,-0.0131,0.0001,0.0071,-0.0077,-30.9249,29.025,-25.3177,12.86182578,77.66470991,925.0079,-1
2025-02-13T05:43:07.832Z,-0.0111,-0.0393,0.0577,0.0094,0.0094,0.0003,-30.9249,29.025,-25.3177,12.86182578,77.66470991,925.0079,-1
2025-02-13T05:43:07.842Z,-0.0455,-0.0296,0.0548,0.0124,0.0055,0.0049,-30.9249,29.025,-25.3177,12.86182578,77.66470991,925.0079,-1
2025-02-13T05:43:07.852Z,-0.037,-0.0299,0.0378,0.0073,-0.0074,0.0013,-30.9249,29.025,-25.3177,12.86182578,77.66470991,925.0079,-1
2025-02-13T05:43:07.864Z,0.0509,-0.0286,-0.033,-0.0002,-0.0102,-0.0041,-30.9249,29.025,-25.3177,12.86182578,77.66470991,925.0079,-1
2025-02-13T05:43:07.872Z,0.0509,-0.0286,-0.033,-0.0032,-0.0119,-0.0114,-30.9249,29.025,-25.3177,12.86182578,77.66470991,925.0079,-1
2025-02-13T05:43:07.882Z,0.0551,-0.0563,-0.0294,-0.0016,-0.0014,-0.0147,-30.9249,29.025,-25.3177,12.86182578,77.66470991,925.0079,-1
2025-02-13T05:43:07.892Z,0.0708,-0.0524,-0.0306,0.0036,0.0159,-0.0191,-30.9249,29.025,-25.3177,12.86182578,77.66470991,925.0079,-1
2025-02-13T05:43:07.902Z,0.0553,-0.0514,-0.0065,0.0128,0.0268,-0.0161,-30.9249,29.025,-25.3177,12.86182578,77.66470991,925.0079,-1
2025-02-13T05:43:07.914Z,-0.0614,-0.0469,0.0064,0.015,0.0268,-0.0071,-30.9249,29.025,-25.3177,12.86182578,77.66470991,925.0079,-1
2025-02-13T05:43:07.922Z,-0.0614,-0.0469,0.0064,0.0127,0.0114,0.0031,-30.9249,29.025,-25.3177,12.86182578,77.66470991,925.0079,-1
2025-02-13T05:43:07.932Z,-0.0607,-0.0245,-0.0091,0.0016,-0.0036,0.0056,-30.9249,29.025,-25.3177,12.86182578,77.66470991,925.0079,-1
2025-02-13T05:43:07.942Z,-0.0262,-0.0221,-0.0647,-0.0148,-0.0212,-0.0024,-30.9249,29.025,-25.3177,12.86182578,77.66470991,925.0079,-1
2025-02-13T05:43:07.952Z,0.0183,-0.0285,-0.0896,-0.0262,-0.0215,-0.0132,-30.9249,29.025,-25.3177,12.86182578,77.66470991,925.0079,-1
2025-02-13T05:43:07.965Z,0.0785,-0.0413,-0.0459,-0.0296,-0.0112,-0.0228,-30.9249,29.025,-25.3177,12.86182578,77.66470991,925.0079,-1
2025-02-13T05:43:07.972Z,0.0785,-0.0413,-0.0459,-0.0205,0.0067,-0.0281,-30.9249,29.025,-25.3177,12.86182578,77.66470991,925.0079,-1
2025-02-13T05:43:07.982Z,0.0384,-0.0494,0.0165,-0.0012,0.0242,-0.0267,-30.9249,29.025,-25.3177,12.86182578,77.66470991,925.0079,-1
2025-02-13T05:43:07.992Z,-0.0331,-0.0543,0.0819,0.0203,0.0339,-0.0157,-30.9249,29.025,-25.3177,12.86182578,77.66470991,925.0079,-1
2025-02-13T05:43:08.002Z,-0.0396,-0.0456,0.1352,0.0273,0.0282,-0.003,-30.9249,29.025,-25.3177,12.86182578,77.66470991,925.0079,-1
2025-02-13T05:43:08.013Z,-0.0825,-0.0343,0.0731,0.0215,0.013,0.0029,-30.9249,29.025,-25.3177,12.86182578,77.66470991,925.0079,-1
2025-02-13T05:43:08.022Z,-0.0651,-0.014,0.0011,0.0066,0.0007,0.0021,-30.9249,29.025,-25.3177,12.86182578,77.66470991,925.0079,-1
2025-02-13T05:43:08.032Z,0.0013,-0.0093,-0.0409,-0.0068,-0.0068,-0.0058,-30.9249,29.025,-25.3177,12.86182578,77.66470991,925.0079,-1
2025-02-13T05:43:08.042Z,0.0509,-0.0189,-0.0625,-0.0166,-0.0086,-0.013,-30.9249,29.025,-25.3177,12.86182578,77.66470991,925.0079,-1
2025-02-13T05:43:08.052Z,0.0472,-0.042,-0.0613,-0.0167,-0.0059,-0.0195,-30.9249,29.025,-25.3177,12.86182578,77.66470991,925.0079,-1
2025-02-13T05:43:08.063Z,0.0361,-0.0469,0.0009,-0.0086,-0.0027,-0.0208,-30.9249,29.025,-25.3177,12.86182578,77.66470991,925.0079,-1
2025-02-13T05:43:08.072Z,0.0205,-0.0361,0.0516,0.0003,-0.0007,-0.0167,-30.9249,29.025,-25.3177,12.86182578,77.66470991,925.0079,-1
2025-02-13T05:43:08.082Z,-0.0444,-0.0584,0.0531,0.0062,-0.0007,-0.0068,-30.9249,29.025,-25.3177,12.86182578,77.66470991,925.0079,-1
2025-02-13T05:43:08.092Z,-0.081,-0.0514,0.0367,0.0094,0.0003,-0.0042,-30.9249,29.025,-25.3177,12.86182578,77.66470991,925.0079,-1
2025-02-13T05:43:08.102Z,-0.0488,-0.0196,0.0148,0.0048,0.0047,0.0032,-30.9249,29.025,-25.3177,12.86182578,77.66470991,925.0079,-1
2025-02-13T05:43:08.115Z,0.0141,-0.0198,-0.0615,-0.0027,0.0095,-0.0006,-30.9249,29.025,-25.3177,12.86182578,77.66470991,925.0079,-1
2025-02-13T05:43:08.122Z,0.0141,-0.0198,-0.0615,-0.0093,0.011,-0.0074,-30.9249,29.025,-25.3177,12.86182578,77.66470991,925.0079,-1
2025-02-13T05:43:08.132Z,0.0408,-0.026,-0.0731,-0.0133,0.0068,-0.0107,-30.9249,29.025,-25.3177,12.86182578,77.66470991,925.0079,-1
2025-02-13T05:43:08.142Z,0.0272,-0.0453,-0.0354,-0.0117,0.0058,-0.0147,-30.9249,29.025,-25.3177,12.86182578,77.66470991,925.0079,-1
2025-02-13T05:43:08.152Z,0.01,-0.0441,0.0095,-0.0041,0.0002,-0.0143,-30.9249,29.025,-25.3177,12.86182578,77.66470991,925.0079,-1
2025-02-13T05:43:08.162Z,-0.0064,-0.038,0.0463,0.0011,-0.0027,-0.0107,-30.9249,29.025,-25.3177,12.86182578,77.66470991,925.0079,-1
2025-02-13T05:43:08.172Z,0.0166,-0.0205,0.0651,0.0014,0.0028,-0.0063,-30.9249,29.025,-25.3177,12.86182578,77.66470991,925.0079,-1
2025-02-13T05:43:08.182Z,0.0265,-0.0294,0.0315,-0.0038,0.0043,-0.0077,-30.9249,29.025,-25.3177,12.86182578,77.66470991,925.0079,-1
2025-02-13T05:43:08.192Z,0.0172,-0.0613,0.0148,-0.0049,0.0017,-0.0119,-30.9249,29.025,-25.3177,12.86182578,77.66470991,925.0079,-1
2025-02-13T05:43:08.202Z,0.0307,-0.0686,0.0011,-0.0094,-0.0034,-0.0142,-30.9249,29.025,-25.3177,12.86182578,77.66470991,925.0079,-1
2025-02-13T05:43:08.212Z,0.0297,-0.0575,-0.0134,-0.0142,-0.0076,-0.0153,-30.9249,29.025,-25.3177,12.86182578,77.66470991,925.0079,-1
2025-02-13T05:43:08.222Z,0.0308,-0.065,-0.0069,-0.0104,-0.0103,-0.0213,-30.9249,29.025,-25.3177,12.86182578,77.66470991,925.0079,-1
2025-02-13T05:43:08.232Z,0.0317,-0.0584,0.0195,0.0002,-0.0106,-0.0243,-30.9249,29.025,-25.3177,12.86182578,77.66470991,925.0079,-1
2025-02-13T05:43:08.242Z,0.0319,-0.0379,0.0537,0.0074,-0.0014,-0.0248,-30.9249,29.025,-25.3177,12.86182578,77.66470991,925.0079,-1
2025-02-13T05:43:08.252Z,0.0189,-0.0197,0.0426,0.0118,0.0073,-0.0212,-30.9249,29.025,-25.3177,12.86182578,77.66470991,925.0079,-1
2025-02-13T05:43:08.262Z,-0.0012,-0.0102,0.0036,0.0109,0.0117,-0.0184,-30.9249,29.025,-25.3177,12.86182578,77.66470991,925.0079,-1
2025-02-13T05:43:08.272Z,-0.049,-0.0301,-0.0407,0.0056,0.0104,-0.0135,-30.9249,29.025,-25.3177,12.86182578,77.66470991,925.0079,-1
2025-02-13T05:43:08.282Z,-0.0807,-0.0193,-0.0536,-0.0062,0.005,-0.0098,-30.9249,29.025,-25.3177,12.86182578,77.66470991,925.0079,-1
2025-02-13T05:43:08.292Z,-0.0747,0.0002,-0.0615,-0.0131,-0.0037,-0.0078,-30.9249,29.025,-25.3177,12.86182578,77.66470991,925.0079,-1
2025-02-13T05:43:08.302Z,-0.0728,-0.0144,-0.0638,-0.0173,-0.0065,-0.0083,-30.9249,29.025,-25.3177,12.86182578,77.66470991,925.0079,-1
2025-02-13T05:43:08.313Z,-0.0601,-0.0155,-0.0462,-0.0172,-0.0056,-0.0045,-30.9249,29.025,-25.3177,12.86182578,77.66470991,925.0079,-1
2025-02-13T05:43:08.322Z,-0.0486,-0.0036,-0.005,-0.0128,-0.0072,-0.0007,-30.9249,29.025,-25.3177,12.86182578,77.66470991,925.0079,-1
2025-02-13T05:43:08.337Z,-0.0482,0.0047,0.0269,-0.0051,0.0007,0.0035,-30.9249,29.025,-25.3177,12.86182578,77.66470991,925.0079,-1
2025-02-13T05:43:08.342Z,-0.0321,0.0164,0.0484,0.0039,0.0049,0.0041,-30.9249,29.025,-25.3177,12.86182578,77.66470991,925.0079,-1
2025-02-13T05:43:08.352Z,-0.0088,-0.0069,0.058,0.0051,0.0077,-0.0031,-30.9249,29.025,-25.3177,12.86182578,77.66470991,925.0079,-1
2025-02-13T05:43:08.362Z,0.0105,-0.031,0.0376,-0.0005,0.0053,-0.0085,-30.9249,29.025,-25.3177,12.86182578,77.66470991,925.0079,-1
2025-02-13T05:43:08.372Z,0.0278,-0.037,-0.0002,-0.0081,0.0028,-0.0088,-30.9249,29.025,-25.3177,12.86182578,77.66470991,925.0079,-1
2025-02-13T05:43:08.382Z,0.0017,-0.0476,-0.041,-0.0123,-0.002,-0.0031,-30.9249,29.025,-25.3177,12.86182578,77.66470991,925.0079,-1
2025-02-13T05:43:08.392Z,-0.0394,-0.0558,-0.011,-0.0112,-0.0056,0.0021,-30.9249,29.025,-25.3177,12.86182578,77.66470991,925.0079,-1
2025-02-13T05:43:08.402Z,-0.0349,-0.0123,0.0366,-0.0025,-0.0152,0.0083,-30.9249,29.025,-25.3177,12.86182578,77.66470991,925.0079,-1
2025-02-13T05:43:08.412Z,-0.0375,-0.0131,0.0686,0.006,-0.013,0.0083,-30.9249,29.025,-25.3177,12.86182578,77.66470991,925.0079,-1
2025-02-13T05:43:08.422Z,0.0195,-0.0362,0.0674,0.0147,-0.006,-0.0006,-30.9249,29.025,-25.3177,12.86182578,77.66470991,925.0079,-1
2025-02-13T05:43:08.432Z,0.0829,-0.0552,0.0626,0.0181,0.0082,-0.0133,-30.9249,29.025,-25.3177,12.86182578,77.66470991,925.0079,-1
2025-02-13T05:43:08.442Z,0.1155,-0.089,0.0084,0.0191,0.0225,-0.0254,-30.9249,29.025,-25.3177,12.86182578,77.66470991,925.0079,-1
2025-02-13T05:43:08.452Z,0.1021,-0.0975,-0.018,0.0195,0.0297,-0.0315,-30.9249,29.025,-25.3177,12.86182578,77.66470991,925.0079,-1
2025-02-13T05:43:08.462Z,0.0812,-0.0656,-0.0349,0.0161,0.03,-0.0289,-30.9249,29.025,-25.3177,12.86182578,77.66470991,925.0079,-1
2025-02-13T05:43:08.472Z,0.0157,-0.0238,-0.0412,0.0131,0.0135,-0.0225,-30.9249,29.025,-25.3177,12.86182578,77.66470991,925.0079,-1
2025-02-13T05:43:08.482Z,-0.0438,-0.0107,-0.0416,0.0024,0.0009,-0.0156,-30.9249,29.025,-25.3177,12.86182578,77.66470991,925.0079,-1
2025-02-13T05:43:08.492Z,-0.0807,-0.0066,-0.0876,-0.0069,-0.009,-0.0063,-30.9249,29.025,-25.3177,12.86182578,77.66470991,925.0079,-1
2025-02-13T05:43:08.502Z,-0.0773,-0.0076,-0.1066,-0.0146,-0.0095,-0.0044,-30.9249,29.025,-25.3177,12.86182578,77.66470991,925.0079,-1
2025-02-13T05:43:08.513Z,-0.075,-0.0006,-0.0978,-0.0214,0.0058,0.0019,-30.9249,29.025,-25.3177,12.86182578,77.66470991,925.0079,-1
2025-02-13T05:43:08.522Z,-0.0526,-0.0078,-0.095,-0.0217,0.0176,0.003,-30.9249,29.025,-25.3177,12.86182578,77.66470991,925.0079,-1
2025-02-13T05:43:08.532Z,-0.0625,-0.0242,-0.0673,-0.0149,0.0126,0.0026,-30.9249,29.025,-25.3177,12.86182578,77.66470991,925.0079,-1
2025-02-13T05:43:08.542Z,-0.063,-0.0424,0.0012,-0.0145,0.0156,-0.0055,-30.9249,29.025,-25.3177,12.86182578,77.66470991,925.0079,-1
2025-02-13T05:43:08.552Z,-0.0024,0.0068,0.0172,-0.0148,0.013,-0.0076,-30.9249,29.025,-25.3177,12.86182578,77.66470991,925.0079,-1
2025-02-13T05:43:08.562Z,-0.0064,0.02,0.043,-0.0081,0.0096,-0.0042,-30.9249,29.025,-25.3177,12.86182578,77.66470991,925.0079,-1
2025-02-13T05:43:08.572Z,-0.0453,-0.0059,0.085,0.0012,0.012,0.001,-30.9249,29.025,-25.3177,12.86182578,77.66470991,925.0079,-1
2025-02-13T05:43:08.582Z,-0.0267,0.0138,0.0943,0.0068,0.019,0.0034,-30.9249,29.025,-25.3177,12.86182578,77.66470991,925.0079,-1
2025-02-13T05:43:08.592Z,-0.0289,-0.0046,0.092,0.0109,0.0206,0.0086,-30.9249,29.025,-25.3177,12.86182578,77.66470991,925.0079,-1
2025-02-13T05:43:08.602Z,-0.0345,-0.0166,0.0771,0.0097,0.0137,0.0127,-30.9249,29.025,-25.3177,12.86182578,77.66470991,925.0079,-1
2025-02-13T05:43:08.612Z,-0.0145,-0.0183,0.0166,0.0044,0.0045,0.0083,-30.9249,29.025,-25.3177,12.86182578,77.66470991,925.0079,-1
2025-02-13T05:43:08.622Z,-0.0155,-0.0507,-0.0225,-0.0066,-0.0086,0.0032,-30.9249,29.025,-25.3177,12.86182578,77.66470991,925.0079,-1
2025-02-13T05:43:08.632Z,0.0092,-0.0548,-0.0455,-0.0098,-0.018,-0.004,-30.9249,29.025,-25.3177,12.86182578,77.66470991,925.0079,-1
2025-02-13T05:43:08.642Z,0.0509,-0.0459,-0.0182,-0.0077,-0.0195,-0.0066,-30.9249,29.025,-25.3177,12.86182578,77.66470991,925.0079,-1
2025-02-13T05:43:08.652Z,0.0733,-0.0371,-0.0085,-0.007,-0.0101,-0.0069,-30.9249,29.025,-25.3177,12.86182578,77.66470991,925.0079,-1
2025-02-13T05:43:08.662Z,0.0575,-0.0559,-0.0309,-0.0035,0.0045,-0.0073,-30.9249,29.025,-25.3177,12.86182578,77.66470991,925.0079,-1
2025-02-13T05:43:08.672Z,0.0545,-0.0535,-0.0157,0.0015,0.0268,-0.0088,-30.9249,29.025,-25.3177,12.86182578,77.66470991,925.0079,-1
2025-02-13T05:43:08.682Z,0.0409,-0.0681,-0.0132,-0.0037,0.0447,-0.0078,-30.9249,29.025,-25.3177,12.86182578,77.66470991,925.0079,-1
2025-02-13T05:43:08.692Z,0.0085,-0.079,0.0017,-0.0137,0.0413,-0.0084,-30.9249,29.025,-25.3177,12.86182578,77.66470991,925.0079,-1
2025-02-13T05:43:08.702Z,0.0022,-0.0679,0.0337,-0.0145,0.0167,-0.0131,-30.9249,29.025,-25.3177,12.86182578,77.66470991,925.0079,-1
2025-02-13T05:43:08.713Z,-0.0287,-0.0716,0.1279,-0.0036,-0.0161,-0.0164,-30.9249,29.025,-25.3177,12.86182578,77.66470991,925.0079,-1
2025-02-13T05:43:08.722Z,-0.0491,-0.0545,0.2107,0.0149,-0.0427,-0.0148,-30.9249,29.025,-25.3177,12.86186026,77.66472029,925.0079,-1
2025-02-13T05:43:08.732Z,-0.0432,-0.0044,0.2597,0.0372,-0.0469,-0.006,-30.9249,29.025,-25.3177,12.86186026,77.66472029,925.0079,-1
2025-02-13T05:43:08.742Z,-0.0383,0.0331,0.2292,0.056,-0.0206,-0.0004,-30.9249,29.025,-25.3177,12.86186026,77.66472029,925.0079,-1
2025-02-13T05:43:08.752Z,-0.0265,0.0256,0.1571,0.0685,0.0141,0.0047,-30.9249,29.025,-25.3177,12.86186026,77.66472029,925.0079,-1
2025-02-13T05:43:08.763Z,-0.0387,-0.011,0.0421,0.0661,0.0394,0.0032,-30.9249,29.025,-25.3177,12.86186026,77.66472029,925.0079,-1
2025-02-13T05:43:08.772Z,-0.0341,-0.0218,-0.0747,0.0496,0.0372,0.0045,-30.9249,29.025,-25.3177,12.86186026,77.66472029,925.0079,-1
2025-02-13T05:43:08.782Z,-0.0259,-0.0013,-0.1734,0.0243,0.0173,0.004,-30.9249,29.025,-25.3177,12.86186026,77.66472029,925.0079,-1
2025-02-13T05:43:08.792Z,-0.0325,0.0117,-0.2142,0.0047,-0.0111,0.0047,-30.9249,29.025,-25.3177,12.86186026,77.66472029,925.0079,-1
2025-02-13T05:43:08.802Z,-0.0332,-0.0007,-0.1922,-0.0068,-0.0265,0.0079,-30.9249,29.025,-25.3177,12.86186026,77.66472029,925.0079,-1
2025-02-13T05:43:08.813Z,-0.0213,0.0029,-0.1531,-0.0059,-0.0199,0.0091,-30.9249,29.025,-25.3177,12.86186026,77.66472029,925.0079,-1
2025-02-13T05:43:08.822Z,0.0313,-0.0264,-0.0928,-0.0027,-0.0057,0.0049,-30.9249,29.025,-25.3177,12.86186026,77.66472029,925.0079,-1
2025-02-13T05:43:08.832Z,0.0629,-0.0489,-0.0988,-0.0058,0.0079,0.0012,-30.9249,29.025,-25.3177,12.86186026,77.66472029,925.0079,-1
2025-02-13T05:43:08.842Z,0.0708,-0.074,-0.1496,-0.0132,0.0175,0.0034,-30.9249,29.025,-25.3177,12.86186026,77.66472029,925.0079,-1
2025-02-13T05:43:08.852Z,0.0351,-0.1084,-0.1638,-0.0215,0.0216,0.0012,-30.9249,29.025,-25.3177,12.86186026,77.66472029,925.0079,-1
2025-02-13T05:43:08.863Z,0.0386,-0.1199,-0.1502,-0.0337,0.0228,0.0012,-30.9249,29.025,-25.3177,12.86186026,77.66472029,925.0079,-1
2025-02-13T05:43:08.872Z,0.0918,-0.0815,-0.128,-0.0489,0.0188,-0.0002,-30.9249,29.025,-25.3177,12.86186026,77.66472029,925.0079,-1
2025-02-13T05:43:08.882Z,0.1049,-0.1013,-0.0849,-0.0514,0.0103,-0.0092,-30.9249,29.025,-25.3177,12.86186026,77.66472029,925.0079,-1
2025-02-13T05:43:08.892Z,0.1315,-0.1273,0.0005,-0.0386,0.0028,-0.0213,-30.9249,29.025,-25.3177,12.86186026,77.66472029,925.0079,-1
2025-02-13T05:43:08.902Z,0.1385,-0.1232,0.1162,-0.0186,0.0035,-0.0293,-30.9249,29.025,-25.3177,12.86186026,77.66472029,925.0079,-1
2025-02-13T05:43:08.913Z,0.1478,-0.1159,0.1919,0.004,0.0112,-0.0397,-30.9249,29.025,-25.3177,12.86186026,77.66472029,925.0079,-1
2025-02-13T05:43:08.922Z,0.1307,-0.1114,0.2136,0.0223,0.0233,-0.0493,-30.9249,29.025,-25.3177,12.86186026,77.66472029,925.0079,-1
2025-02-13T05:43:08.932Z,0.1257,-0.105,0.173,0.0342,0.0263,-0.0565,-30.9249,29.025,-25.3177,12.86186026,77.66472029,925.0079,-1
2025-02-13T05:43:08.942Z,0.0734,-0.0956,0.1267,0.0367,0.0277,-0.0601,-30.9249,29.025,-25.3177,12.86186026,77.66472029,925.0079,-1
2025-02-13T05:43:08.952Z,0.0253,-0.0617,0.0595,0.0311,0.0253,-0.0546,-30.9249,29.025,-25.3177,12.86186026,77.66472029,925.0079,-1
2025-02-13T05:43:08.964Z,-0.0687,-0.0253,-0.0107,0.0208,0.0216,-0.0403,-30.9249,29.025,-25.3177,12.86186026,77.66472029,925.0079,-1
2025-02-13T05:43:08.972Z,-0.1151,0.017,-0.0665,0.0093,0.0216,-0.0254,-30.9249,29.025,-25.3177,12.86186026,77.66472029,925.0079,-1
2025-02-13T05:43:08.982Z,-0.0906,0.0452,-0.0911,-0.002,0.0124,-0.0186,-30.9249,29.025,-25.3177,12.86186026,77.66472029,925.0079,-1
2025-02-13T05:43:08.992Z,-0.0777,0.0391,-0.1064,-0.0093,0.0061,-0.0179,-30.9249,29.025,-25.3177,12.86186026,77.66472029,925.0079,-1
2025-02-13T05:43:09.003Z,-0.0457,0.039,-0.0791,-0.0125,0.0038,-0.0228,-30.9249,29.025,-25.3177,12.86186026,77.66472029,925.0079,-1
2025-02-13T05:43:09.014Z,0.0043,0.0262,-0.0756,-0.0131,0.0083,-0.0286,-30.9249,29.025,-25.3177,12.86186026,77.66472029,925.0079,-1
2025-02-13T05:43:09.022Z,-0.0267,0.0255,-0.0581,-0.01,0.0124,-0.0259,-30.9249,29.025,-25.3177,12.86186026,77.66472029,925.0079,-1
2025-02-13T05:43:09.032Z,-0.0484,0.0163,-0.0404,-0.0059,0.0242,-0.0223,-30.9249,29.025,-25.3177,12.86186026,77.66472029,925.0079,-1
2025-02-13T05:43:09.042Z,-0.0732,0.0114,-0.0298,-0.0008,0.0344,-0.015,-30.9249,29.025,-25.3177,12.86186026,77.66472029,925.0079,-1
2025-02-13T05:43:09.052Z,-0.0975,0.0426,-0.0086,-0.0005,0.0345,-0.0073,-30.9249,29.025,-25.3177,12.86186026,77.66472029,925.0079,-1
2025-02-13T05:43:09.063Z,-0.101,0.0567,-0.0167,-0.0055,0.0208,0.0006,-30.9249,29.025,-25.3177,12.86186026,77.66472029,925.0079,-1
2025-02-13T05:43:09.072Z,-0.0893,0.0447,-0.0393,-0.0178,0.0138,0.0045,-30.9249,29.025,-25.3177,12.86186026,77.66472029,925.0079,-1
2025-02-13T05:43:09.084Z,-0.082,0.0442,-0.0601,-0.0262,0.0081,0.0073,-30.9249,29.025,-25.3177,12.86186026,77.66472029,925.0079,-1
2025-02-13T05:43:09.093Z,-0.095,0.0208,-0.0802,-0.0326,0.0077,0.012,-30.9249,29.025,-25.3177,12.86186026,77.66472029,925.0079,-1
2025-02-13T05:43:09.103Z,-0.0915,0.0188,-0.0382,-0.0341,0.0028,0.0185,-30.9249,29.025,-25.3177,12.86186026,77.66472029,925.0079,-1
2025-02-13T05:43:09.113Z,-0.0902,0.0142,-0.0087,-0.0353,-0.0045,0.0209,-30.9249,29.025,-25.3177,12.86186026,77.66472029,925.0079,-1
2025-02-13T05:43:09.124Z,-0.0439,-0.001,0.0191,-0.0302,-0.0087,0.0162,-30.9249,29.025,-25.3177,12.86186026,77.66472029,925.0079,-1
2025-02-13T05:43:09.134Z,-0.0055,-0.0327,0.0337,-0.0254,-0.0015,0.0122,-30.9249,29.025,-25.3177,12.86186026,77.66472029,925.0079,-1
2025-02-13T05:43:09.143Z,0.0253,-0.0377,0.0625,-0.0179,0.0115,0.0096,-30.9249,29.025,-25.3177,12.86186026,77.66472029,925.0079,-1
2025-02-13T05:43:09.152Z,0.0526,-0.0423,0.0976,-0.0179,0.0115,0.0096,-30.9249,29.025,-25.3177,12.86186026,77.66472029,925.0079,-1
2025-02-13T05:43:09.162Z,0.0214,-0.0475,0.1058,-0.0102,0.0212,0.0061,-30.9249,29.025,-25.3177,12.86186026,77.66472029,925.0079,-1
2025-02-13T05:43:09.173Z,-0.0033,-0.0653,0.0992,-0.0011,0.0114,0.0078,-30.9249,29.025,-25.3177,12.86186026,77.66472029,925.0079,-1
2025-02-13T05:43:09.182Z,0.0038,-0.0672,0.0916,-0.0011,0.0114,0.0078,-30.9249,29.025,-25.3177,12.86186026,77.66472029,925.0079,-1
2025-02-13T05:43:09.192Z,0.0351,-0.0515,0.0807,-0.0049,0.0039,0.0042,-30.9249,29.025,-25.3177,12.86186026,77.66472029,925.0079,-1
2025-02-13T05:43:09.202Z,0.0473,-0.0713,0.0677,-0.0059,-0.0056,0.0022,-30.9249,29.025,-25.3177,12.86186026,77.66472029,925.0079,-1
2025-02-13T05:43:09.212Z,0.0513,-0.0583,0.0888,-0.0047,-0.0103,-0.0023,-30.9249,29.025,-25.3177,12.86186026,77.66472029,925.0079,-1
2025-02-13T05:43:09.222Z,0.0496,-0.064,0.083,-0.0059,-0.0151,-0.0055,-30.9249,29.025,-25.3177,12.86186026,77.66472029,925.0079,-1
2025-02-13T05:43:09.234Z,0.0295,-0.0487,0.0567,-0.0014,-0.0255,-0.0078,-30.9249,29.025,-25.3177,12.86186026,77.66472029,925.0079,-1
2025-02-13T05:43:09.242Z,0.0137,-0.0355,0.0407,-0.0014,-0.0255,-0.0078,-30.9249,29.025,-25.3177,12.86186026,77.66472029,925.0079,-1
2025-02-13T05:43:09.252Z,0.0046,-0.0337,0.0168,0.0001,-0.02,-0.005,-30.9249,29.025,-25.3177,12.86186026,77.66472029,925.0079,-1
2025-02-13T05:43:09.262Z,0.0171,-0.0468,-0.0215,0.0032,-0.0132,-0.0056,-30.9249,29.025,-25.3177,12.86186026,77.66472029,925.0079,-1
2025-02-13T05:43:09.272Z,0.0294,-0.0349,-0.037,0.0032,-0.0037,-0.0117,-30.9249,29.025,-25.3177,12.86186026,77.66472029,925.0079,-1
2025-02-13T05:43:09.282Z,0.0244,-0.0141,-0.0729,0.0015,0.0021,-0.0153,-30.9249,29.025,-25.3177,12.86186026,77.66472029,925.0079,-1
2025-02-13T05:43:09.292Z,0.0197,-0.0289,-0.0757,-0.0033,0.0055,-0.0181,-30.9249,29.025,-25.3177,12.86186026,77.66472029,925.0079,-1
2025-02-13T05:43:09.302Z,0.0047,-0.0224,-0.048,-0.0038,0.0024,-0.018,-30.9249,29.025,-25.3177,12.86186026,77.66472029,925.0079,-1
2025-02-13T05:43:09.312Z,-0.0132,-0.0287,-0.0493,-0.0075,0.0009,-0.0139,-30.9249,29.025,-25.3177,12.86186026,77.66472029,925.0079,-1
2025-02-13T05:43:09.322Z,-0.047,-0.0283,-0.0657,-0.0168,-0.0027,-0.0086,-30.9249,29.025,-25.3177,12.86186026,77.66472029,925.0079,-1
2025-02-13T05:43:09.332Z,-0.0616,-0.0328,-0.0373,-0.0217,-0.0034,-0.0007,-30.9249,29.025,-25.3177,12.86186026,77.66472029,925.0079,-1
2025-02-13T05:43:09.342Z,-0.044,-0.0286,0.0001,-0.0222,-0.0063,0.0048,-30.9249,29.025,-25.3177,12.86186026,77.66472029,925.0079,-1
2025-02-13T05:43:09.352Z,-0.0277,-0.0312,0.0509,-0.019,-0.008,0.006,-30.9249,29.025,-25.3177,12.86186026,77.66472029,925.0079,-1
2025-02-13T05:43:09.362Z,0.0086,-0.0479,0.0795,-0.0133,-0.0083,0.0005,-30.9249,29.025,-25.3177,12.86186026,77.66472029,925.0079,-1
2025-02-13T05:43:09.372Z,0.0433,-0.0265,0.0775,-0.0075,-0.0089,-0.0072,-30.9249,29.025,-25.3177,12.86186026,77.66472029,925.0079,-1
2025-02-13T05:43:09.384Z,0.0286,-0.0339,0.0675,-0.0024,-0.0036,-0.0137,-30.9249,29.025,-25.3177,12.86186026,77.66472029,925.0079,-1
2025-02-13T05:43:09.392Z,0.001,-0.0171,0.0417,0.0017,-0.0013,-0.011,-30.9249,29.025,-25.3177,12.86186026,77.66472029,925.0079,-1
2025-02-13T05:43:09.402Z,-0.0062,-0.0031,0.0287,0.0094,-0.0011,-0.0085,-30.9249,29.025,-25.3177,12.86186026,77.66472029,925.0079,-1
2025-02-13T05:43:09.412Z,-0.0402,-0.0037,-0.0107,0.0091,-0.006,-0.0029,-30.9249,29.025,-25.3177,12.86186026,77.66472029,925.0079,-1
2025-02-13T05:43:09.422Z,-0.0475,-0.0247,-0.0703,0.0034,-0.0123,0.0025,-30.9249,29.025,-25.3177,12.86186026,77.66472029,925.0079,-1
2025-02-13T05:43:09.432Z,-0.0398,-0.0172,-0.0891,-0.0076,-0.023,0.008,-30.9249,29.025,-25.3177,12.86186026,77.66472029,925.0079,-1
2025-02-13T05:43:09.442Z,-0.0238,-0.0142,-0.1141,-0.0161,-0.0311,0.0071,-30.9249,29.025,-25.3177,12.86186026,77.66472029,925.0079,-1
2025-02-13T05:43:09.452Z,0.0125,-0.0279,-0.0932,-0.0236,-0.0283,0.0066,-30.9249,29.025,-25.3177,12.86186026,77.66472029,925.0079,-1
2025-02-13T05:43:09.462Z,0.0423,-0.02,-0.052,-0.0262,-0.0153,0.0046,-30.9249,29.025,-25.3177,12.86186026,77.66472029,925.0079,-1
2025-02-13T05:43:09.472Z,0.0468,-0.0521,-0.0059,-0.0212,0.0005,0,-30.9249,29.025,-25.3177,12.86186026,77.66472029,925.0079,-1
2025-02-13T05:43:09.482Z,0.0083,-0.0718,0.044,-0.0099,0.0086,-0.0024,-30.9249,29.025,-25.3177,12.86186026,77.66472029,925.0079,-1
2025-02-13T05:43:09.492Z,0.0089,-0.0603,0.065,0.0002,0.0131,-0.0058,-30.9249,29.025,-25.3177,12.86186026,77.66472029,925.0079,-1
2025-02-13T05:43:09.502Z,0.0255,-0.0497,0.0513,0.0053,0.0153,-0.0084,-30.9249,29.025,-25.3177,12.86186026,77.66472029,925.0079,-1
2025-02-13T05:43:09.512Z,-0.0061,-0.0403,0.0314,0.006,0.0173,-0.0097,-30.9249,29.025,-25.3177,12.86186026,77.66472029,925.0079,-1
2025-02-13T05:43:09.522Z,-0.0048,-0.0208,0.0436,0.0056,0.0149,-0.0096,-30.9249,29.025,-25.3177,12.86186026,77.66472029,925.0079,-1
2025-02-13T05:43:09.532Z,-0.0176,-0.004,0.0171,0.0001,0.0021,-0.0078,-30.9249,29.025,-25.3177,12.86186026,77.66472029,925.0079,-1
2025-02-13T05:43:09.542Z,-0.0364,-0.0003,0.0159,-0.0038,-0.0088,-0.0022,-30.9249,29.025,-25.3177,12.86186026,77.66472029,925.0079,-1
2025-02-13T05:43:09.552Z,-0.0324,-0.0102,0.0146,-0.0018,-0.012,0.0026,-30.9249,29.025,-25.3177,12.86186026,77.66472029,925.0079,-1
2025-02-13T05:43:09.562Z,-0.0148,-0.031,0.022,0.0014,-0.0083,0.0074,-30.9249,29.025,-25.3177,12.86186026,77.66472029,925.0079,-1
2025-02-13T05:43:09.572Z,-0.0005,-0.0362,-0.0084,0.0043,-0.001,0.0063,-30.9249,29.025,-25.3177,12.86186026,77.66472029,925.0079,-1
2025-02-13T05:43:09.582Z,0.0096,-0.0596,-0.0097,0.0057,0.0051,0.0037,-30.9249,29.025,-25.3177,12.86186026,77.66472029,925.0079,-1
2025-02-13T05:43:09.592Z,0.0328,-0.041,-0.002,0.0047,0.008,-0.0023,-30.9249,29.025,-25.3177,12.86186026,77.66472029,925.0079,-1
2025-02-13T05:43:09.602Z,0.044,-0.0212,-0.0197,0.0011,0.0035,-0.0068,-30.9249,29.025,-25.3177,12.86186026,77.66472029,925.0079,-1
2025-02-13T05:43:09.612Z,0.0085,-0.0414,-0.0257,-0.0038,-0.0049,-0.009,-30.9249,29.025,-25.3177,12.86186026,77.66472029,925.0079,-1
2025-02-13T05:43:09.622Z,0.0094,-0.042,0.0008,-0.0042,-0.0118,-0.0088,-30.9249,29.025,-25.3177,12.86186026,77.66472029,925.0079,-1
2025-02-13T05:43:09.632Z,-0.0041,-0.0367,0.0201,-0.0026,-0.0078,-0.0052,-30.9249,29.025,-25.3177,12.86186026,77.66472029,925.0079,-1
2025-02-13T05:43:09.642Z,-0.0026,-0.0508,-0.0189,0.0022,0,-0.0018,-30.9249,29.025,-25.3177,12.86186026,77.66472029,925.0079,-1
2025-02-13T05:43:09.652Z,0.0198,-0.0413,-0.028,0.0021,0.0142,-0.0018,-30.9249,29.025,-25.3177,12.86186026,77.66472029,925.0079,-1
2025-02-13T05:43:09.662Z,-0.0039,-0.0542,-0.0347,0.0024,0.0168,-0.0022,-30.9249,29.025,-25.3177,12.86186026,77.66472029,925.0079,-1
2025-02-13T05:43:09.672Z,0.0142,-0.0411,-0.0316,-0.0001,0.0127,-0.001,-30.9249,29.025,-25.3177,12.86186026,77.66472029,925.0079,-1
2025-02-13T05:43:09.682Z,0.0079,-0.0044,-0.0236,-0.0054,0.0017,-0.005,-30.9249,29.025,-25.3177,12.86186026,77.66472029,925.0079,-1
2025-02-13T05:43:09.692Z,-0.0032,0.001,-0.0312,-0.0116,-0.009,-0.0089,-30.9249,29.025,-25.3177,12.86186026,77.66472029,925.0079,-1
2025-02-13T05:43:09.702Z,-0.019,-0.0146,-0.0118,-0.0119,-0.0105,-0.0106,-30.9249,29.025,-25.3177,12.86186026,77.66472029,925.0079,-1
2025-02-13T05:43:09.712Z,-0.0097,-0.0022,0.0015,-0.0085,-0.0013,-0.0064,-30.9249,29.025,-25.3177,12.86186026,77.66472029,925.0079,-1
2025-02-13T05:43:09.722Z,0.0025,-0.0044,0.0068,-0.0068,0.0123,-0.0044,-30.9249,29.025,-25.3177,12.86186026,77.66472029,925.0079,-1
2025-02-13T05:43:09.732Z,-0.0276,-0.0175,0.025,-0.0008,0.02,-0.0048,-30.9249,29.025,-25.3177,12.86186026,77.66472029,925.0079,-1
2025-02-13T05:43:09.742Z,-0.0704,-0.011,0.0274,0.0027,0.0198,-0.0029,-30.9249,29.025,-25.3177,12.86186026,77.66472029,925.0079,-1
2025-02-13T05:43:09.752Z,-0.0866,0.0081,0.05,0.0061,0.0148,0.0052,-30.9249,29.025,-25.3177,12.86186026,77.66472029,925.0079,-1
2025-02-13T05:43:09.762Z,-0.0864,0.0062,0.022,0.0056,0.0066,0.0121,-30.9249,29.025,-25.3177,12.86186026,77.66472029,925.0079,-1
2025-02-13T05:43:09.772Z,-0.0587,-0.0095,-0.0011,0.0005,-0.0057,0.0158,-30.9249,29.025,-25.3177,12.86186026,77.66472029,925.0079,-1
2025-02-13T05:43:09.782Z,-0.012,-0.0087,0.0018,-0.0047,-0.0107,0.0124,-30.9249,29.025,-25.3177,12.86186026,77.66472029,925.0079,-1
2025-02-13T05:43:09.792Z,-0.003,-0.0199,-0.0183,-0.0144,-0.0106,0.0068,-30.9249,29.025,-25.3177,12.86186026,77.66472029,925.0079,-1
2025-02-13T05:43:09.802Z,0.0022,-0.0208,-0.0192,-0.0166,-0.0094,0.0046,-30.9249,29.025,-25.3177,12.86186026,77.66472029,925.0079,-1
2025-02-13T05:43:09.812Z,-0.0143,-0.0196,0.0232,-0.0152,-0.0002,0.0066,-30.9249,29.025,-25.3177,12.86186026,77.66472029,925.0079,-1
2025-02-13T05:43:09.822Z,-0.0031,-0.03,0.0539,-0.0067,0.001,0.0134,-30.9249,29.025,-25.3177,12.86186026,77.66472029,925.0079,-1
2025-02-13T05:43:09.832Z,0.0179,-0.0376,0.0709,0.0007,0.0054,0.0137,-30.9249,29.025,-25.3177,12.86186026,77.66472029,925.0079,-1
2025-02-13T05:43:09.842Z,0.0485,-0.0697,0.084,0.011,-0.0007,0.0084,-30.9249,29.025,-25.3177,12.86186026,77.66472029,925.0079,-1
2025-02-13T05:43:09.852Z,0.0766,-0.0708,0.0621,0.0193,-0.0074,0.0006,-30.9249,29.025,-25.3177,12.86186026,77.66472029,925.0079,-1
2025-02-13T05:43:09.862Z,0.07,-0.0748,-0.0008,0.0197,-0.0096,-0.0077,-30.9249,29.025,-25.3177,12.86186026,77.66472029,925.0079,-1
2025-02-13T05:43:09.872Z,0.0586,-0.0795,-0.0576,0.0153,-0.0046,-0.0094,-30.9249,29.025,-25.3177,12.86186026,77.66472029,925.0079,-1
2025-02-13T05:43:09.882Z,0.0494,-0.0703,-0.0953,0.0056,0.0062,-0.0083,-30.9249,29.025,-25.3177,12.86186026,77.66472029,925.0079,-1
2025-02-13T05:43:09.892Z,0.0449,-0.06,-0.1318,-0.005,0.0119,-0.0103,-30.9249,29.025,-25.3177,12.86186026,77.66472029,925.0079,-1
2025-02-13T05:43:09.902Z,0.0768,-0.0658,-0.1018,-0.0126,0.0132,-0.0117,-30.9249,29.025,-25.3177,12.86186026,77.66472029,925.0079,-1
2025-02-13T05:43:09.912Z,0.0567,-0.0613,-0.0632,-0.0176,0.006,-0.0157,-30.9249,29.025,-25.3177,12.86186026,77.66472029,925.0079,-1
2025-02-13T05:43:09.922Z,-0.0063,-0.0675,-0.0177,-0.0206,-0.0008,-0.0159,-30.9249,29.025,-25.3177,12.86186026,77.66472029,925.0079,-1
2025-02-13T05:43:09.932Z,-0.0189,-0.0434,0.017,-0.0168,-0.0074,-0.0134,-30.9249,29.025,-25.3177,12.86186026,77.66472029,925.0079,-1
2025-02-13T05:43:09.942Z,-0.0029,-0.0253,0.0505,-0.0144,-0.0049,-0.0094,-30.9249,29.025,-25.3177,12.86186026,77.66472029,925.0079,-1
2025-02-13T05:43:09.952Z,0.0424,-0.0151,0.0256,-0.0117,-0.0003,-0.0123,-30.9249,29.025,-25.3177,12.86186026,77.66472029,925.0079,-1
2025-02-13T05:43:09.962Z,0.0539,-0.0075,0.0023,-0.0091,0.0057,-0.0165,-30.9249,29.025,-25.3177,12.86186026,77.66472029,925.0079,-1
2025-02-13T05:43:09.972Z,0.0275,-0.0146,0.024,-0.0088,0.0085,-0.0234,-30.9249,29.025,-25.3177,12.86186026,77.66472029,925.0079,-1
2025-02-13T05:43:09.982Z,-0.0054,-0.0099,0.0609,-0.0015,0.0096,-0.0277,-30.9249,29.025,-25.3177,12.86186026,77.66472029,925.0079,-1
2025-02-13T05:43:09.992Z,-0.0926,-0.0088,0.0721,0.0086,0.01,-0.0247,-30.9249,29.025,-25.3177,12.86186026,77.66472029,925.0079,-1
2025-02-13T05:43:10.002Z,-0.1211,0.0024,0.06,0.017,0.0114,-0.0162,-30.9249,29.025,-25.3177,12.86186026,77.66472029,925.0079,-1
2025-02-13T05:43:10.012Z,-0.1087,0.0133,0,0.015,0.0138,-0.0051,-30.9249,29.025,-25.3177,12.86186026,77.66472029,925.0079,-1
2025-02-13T05:43:10.022Z,-0.1118,0.0427,-0.0536,0.0069,0.0144,0.0022,-30.9249,29.025,-25.3177,12.86186026,77.66472029,925.0079,-1
2025-02-13T05:43:10.032Z,-0.1036,0.0448,-0.0797,-0.007,0.004,0.0103,-30.9249,29.025,-25.3177,12.86186026,77.66472029,925.0079,-1
2025-02-13T05:43:10.042Z,-0.0704,0.0535,-0.0587,-0.0148,-0.0074,0.0121,-30.9249,29.025,-25.3177,12.86186026,77.66472029,925.0079,-1
2025-02-13T05:43:10.052Z,-0.0324,0.0199,-0.0305,-0.0224,-0.0181,0.0125,-30.9249,29.025,-25.3177,12.86186026,77.66472029,925.0079,-1
2025-02-13T05:43:10.062Z,-0.0387,-0.0186,-0.0275,-0.0275,-0.0256,0.0086,-30.9249,29.025,-25.3177,12.86186026,77.66472029,925.0079,-1
2025-02-13T05:43:10.072Z,-0.0323,-0.0195,-0.0117,-0.0257,-0.0224,0.0085,-30.9249,29.025,-25.3177,12.86186026,77.66472029,925.0079,-1
2025-02-13T05:43:10.082Z,-0.0109,-0.0165,0.023,-0.0194,-0.0135,0.009,-30.9249,29.025,-25.3177,12.86186026,77.66472029,925.0079,-1
2025-02-13T05:43:10.092Z,-0.0206,-0.0446,0.0355,-0.0083,-0.0018,0.0119,-30.9249,29.025,-25.3177,12.86186026,77.66472029,925.0079,-1
2025-02-13T05:43:10.102Z,0.0021,-0.0425,0.0263,-0.0015,0.0064,0.0149,-30.9249,29.025,-25.3177,12.86186026,77.66472029,925.0079,-1
2025-02-13T05:43:10.112Z,0.0231,-0.0472,0.0185,0.0013,0.0124,0.0169,-30.9249,29.025,-25.3177,12.86186026,77.66472029,925.0079,-1
2025-02-13T05:43:10.122Z,0.0454,-0.0437,0.0071,0.0005,0.0136,0.0133,-30.9249,29.025,-25.3177,12.86186026,77.66472029,925.0079,-1
2025-02-13T05:43:10.132Z,0.0535,-0.0528,0.0104,-0.0027,0.0096,0.0124,-30.9249,29.025,-25.3177,12.86186026,77.66472029,925.0079,-1
2025-02-13T05:43:10.142Z,0.0403,-0.0773,0.0063,-0.0049,0.0011,0.0076,-30.9249,29.025,-25.3177,12.86186026,77.66472029,925.0079,-1
2025-02-13T05:43:10.152Z,0.0603,-0.0767,0.0247,-0.0056,-0.0054,0.0017,-30.9249,29.025,-25.3177,12.86186026,77.66472029,925.0079,-1
2025-02-13T05:43:10.162Z,0.0656,-0.0832,0.0337,-0.0058,-0.0085,-0.0005,-30.9249,29.025,-25.3177,12.86186026,77.66472029,925.0079,-1
2025-02-13T05:43:10.172Z,0.091,-0.0698,0.0168,-0.0038,-0.0081,-0.0034,-30.9249,29.025,-25.3177,12.86186026,77.66472029,925.0079,-1
2025-02-13T05:43:10.182Z,0.0714,-0.0769,0.0411,-0.0008,-0.0045,-0.0093,-30.9249,29.025,-25.3177,12.86186026,77.66472029,925.0079,-1
2025-02-13T05:43:10.192Z,0.0884,-0.0688,0.011,0.0042,0.0021,-0.017,-30.9249,29.025,-25.3177,12.86186026,77.66472029,925.0079,-1
2025-02-13T05:43:10.202Z,0.0978,-0.0518,-0.0022,0.007,0.0071,-0.0235,-30.9249,29.025,-25.3177,12.86186026,77.66472029,925.0079,-1
2025-02-13T05:43:10.212Z,0.0487,-0.0438,-0.0105,0.0083,0.0134,-0.0263,-30.9249,29.025,-25.3177,12.86186026,77.66472029,925.0079,-1
2025-02-13T05:43:10.222Z,0.0096,-0.0447,-0.0066,0.0127,0.0145,-0.0265,-30.9249,29.025,-25.3177,12.86186026,77.66472029,925.0079,-1
2025-02-13T05:43:10.232Z,-0.0318,-0.0161,-0.022,0.0118,0.0132,-0.0226,-30.9249,29.025,-25.3177,12.86186026,77.66472029,925.0079,-1
2025-02-13T05:43:10.242Z,-0.0645,-0.0004,-0.0621,0.0069,0.0075,-0.0163,-30.9249,29.025,-25.3177,12.86186026,77.66472029,925.0079,-1
2025-02-13T05:43:10.252Z,-0.0626,0.0089,-0.0937,-0.0035,-0.0047,-0.0103,-30.9249,29.025,-25.3177,12.86186026,77.66472029,925.0079,-1
2025-02-13T05:43:10.262Z,-0.038,0.0117,-0.0911,-0.014,-0.0086,-0.0041,-30.9249,29.025,-25.3177,12.86186026,77.66472029,925.0079,-1
2025-02-13T05:43:10.272Z,-0.0292,-0.0075,-0.0846,-0.0218,-0.0114,-0.0019,-30.9249,29.025,-25.3177,12.86186026,77.66472029,925.0079,-1
2025-02-13T05:43:10.282Z,-0.0123,-0.0038,-0.058,-0.0249,-0.0091,-0.0007,-30.9249,29.025,-25.3177,12.86186026,77.66472029,925.0079,-1
2025-02-13T05:43:10.292Z,-0.0239,-0.0225,-0.0287,-0.0248,-0.0022,-0.0027,-30.9249,29.025,-25.3177,12.86186026,77.66472029,925.0079,-1
2025-02-13T05:43:10.302Z,-0.007,-0.0342,0.0052,-0.0195,0.0035,-0.0049,-30.9249,29.025,-25.3177,12.86186026,77.66472029,925.0079,-1
2025-02-13T05:43:10.313Z,0.0204,-0.0537,0.0181,-0.0157,0.0098,-0.0106,-30.9249,29.025,-25.3177,12.86186026,77.66472029,925.0079,-1
2025-02-13T05:43:10.322Z,0.0112,-0.0358,0.0355,-0.0152,0.0149,-0.016,-30.9249,29.025,-25.3177,12.86186026,77.66472029,925.0079,-1
2025-02-13T05:43:10.332Z,-0.0272,-0.0207,0.0563,-0.0099,0.013,-0.0174,-30.9249,29.025,-25.3177,12.86186026,77.66472029,925.0079,-1
2025-02-13T05:43:10.342Z,-0.056,0.0157,0.06,-0.0089,0.006,-0.0078,-30.9249,29.025,-25.3177,12.86186026,77.66472029,925.0079,-1
2025-02-13T05:43:10.352Z,-0.0892,0.037,0.0609,-0.0081,0.0006,0.0007,-30.9249,29.025,-25.3177,12.86186026,77.66472029,925.0079,-1
2025-02-13T05:43:10.362Z,-0.0746,0.0038,0.0744,-0.0066,-0.0093,0.0111,-30.9249,29.025,-25.3177,12.86186026,77.66472029,925.0079,-1
2025-02-13T05:43:10.372Z,-0.0396,-0.0125,0.0637,-0.0006,-0.011,0.0112,-30.9249,29.025,-25.3177,12.86186026,77.66472029,925.0079,-1
2025-02-13T05:43:10.382Z,-0.0242,-0.0186,0.0523,0.0012,-0.0069,0.0108,-30.9249,29.025,-25.3177,12.86186026,77.66472029,925.0079,-1
2025-02-13T05:43:10.392Z,0.0265,-0.0394,0.031,0.0036,-0.0031,0.006,-30.9249,29.025,-25.3177,12.86186026,77.66472029,925.0079,-1
2025-02-13T05:43:10.403Z,0.0546,-0.0476,0.0304,0.0036,-0.0031,0.006,-30.9249,29.025,-25.3177,12.86186026,77.66472029,925.0079,-1
2025-02-13T05:43:10.412Z,0.0636,-0.0481,0.0323,0.0058,0.0017,-0.0097,-30.9249,29.025,-25.3177,12.86186026,77.66472029,925.0079,-1
2025-02-13T05:43:10.422Z,0.065,-0.0506,0.0237,0.0046,-0.0023,-0.0153,-30.9249,29.025,-25.3177,12.86186026,77.66472029,925.0079,-1
2025-02-13T05:43:10.432Z,0.0525,-0.0157,0.011,0.0032,-0.0085,-0.0215,-30.9249,29.025,-25.3177,12.86186026,77.66472029,925.0079,-1
2025-02-13T05:43:10.443Z,-0.0129,-0.0369,0.0059,0.0047,-0.009,-0.0198,-30.9249,29.025,-25.3177,12.86186026,77.66472029,925.0079,-1
2025-02-13T05:43:10.452Z,-0.0577,-0.028,-0.0087,0.007,-0.002,-0.0104,-30.9249,29.025,-25.3177,12.86186026,77.66472029,925.0079,-1
2025-02-13T05:43:10.463Z,-0.0638,-0.0263,-0.0246,0.0111,0.007,-0.0004,-30.9249,29.025,-25.3177,12.86186026,77.66472029,925.0079,-1
2025-02-13T05:43:10.472Z,-0.081,-0.033,-0.033,0.0113,0.0103,0.0087,-30.9249,29.025,-25.3177,12.86186026,77.66472029,925.0079,-1
2025-02-13T05:43:10.482Z,-0.0283,-0.0348,-0.0953,0.0065,0.003,0.0158,-30.9249,29.025,-25.3177,12.86186026,77.66472029,925.0079,-1
2025-02-13T05:43:10.494Z,0.0237,-0.0235,-0.1162,-0.0058,-0.0022,0.0083,-30.9249,29.025,-25.3177,12.86186026,77.66472029,925.0079,-1
2025-02-13T05:43:10.502Z,0.0625,-0.0231,-0.1161,-0.0205,-0.0046,-0.0048,-30.9249,29.025,-25.3177,12.86186026,77.66472029,925.0079,-1
2025-02-13T05:43:10.512Z,0.0693,-0.0327,-0.0928,-0.0233,0.0002,-0.0141,-30.9249,29.025,-25.3177,12.86186026,77.66472029,925.0079,-1
2025-02-13T05:43:10.522Z,0.0299,-0.0348,-0.0092,-0.0202,0.0073,-0.0169,-30.9249,29.025,-25.3177,12.86186026,77.66472029,925.0079,-1
2025-02-13T05:43:10.532Z,-0.0205,-0.0312,0.0239,-0.0097,0.0161,-0.0129,-30.9249,29.025,-25.3177,12.86186026,77.66472029,925.0079,-1
2025-02-13T05:43:10.543Z,-0.0652,-0.0446,0.0529,-0.0048,0.0236,-0.0065,-30.9249,29.025,-25.3177,12.86186026,77.66472029,925.0079,-1
2025-02-13T05:43:10.552Z,-0.1004,-0.0212,0.0375,-0.0034,0.0166,0.0024,-30.9249,29.025,-25.3177,12.86186026,77.66472029,925.0079,-1
2025-02-13T05:43:10.562Z,-0.0702,-0.0107,0.0466,-0.0057,0.0064,0.0094,-30.9249,29.025,-25.3177,12.86186026,77.66472029,925.0079,-1
2025-02-13T05:43:10.572Z,-0.0067,0.0031,0.0378,-0.0093,-0.0041,0.009,-30.9249,29.025,-25.3177,12.86186026,77.66472029,925.0079,-1
2025-02-13T05:43:10.582Z,0.0088,-0.006,0.0406,-0.01,-0.0095,0.0034,-30.9249,29.025,-25.3177,12.86186026,77.66472029,925.0079,-1
2025-02-13T05:43:10.593Z,0.0449,-0.0081,0.0806,-0.0108,-0.0089,-0.0012,-30.9249,29.025,-25.3177,12.86186026,77.66472029,925.0079,-1
2025-02-13T05:43:10.602Z,0.0366,-0.0133,0.088,-0.0017,-0.0112,-0.0037,-30.9249,29.025,-25.3177,12.86186026,77.66472029,925.0079,-1
2025-02-13T05:43:10.612Z,0.0063,-0.0464,0.072,0.0076,-0.0107,-0.0099,-30.9249,29.025,-25.3177,12.86186026,77.66472029,925.0079,-1
2025-02-13T05:43:10.622Z,-0.0082,-0.0249,0.0262,0.0127,-0.0038,-0.0097,-30.9249,29.025,-25.3177,12.86186026,77.66472029,925.0079,-1
2025-02-13T05:43:10.632Z,-0.0231,-0.0072,-0.0321,0.0121,-0.002,-0.0082,-30.9249,29.025,-25.3177,12.86186026,77.66472029,925.0079,-1
2025-02-13T05:43:10.644Z,-0.0379,-0.0138,-0.0758,0.0084,-0.0057,-0.0026,-30.9249,29.025,-25.3177,12.86186026,77.66472029,925.0079,-1
2025-02-13T05:43:10.652Z,-0.0369,-0.0102,-0.0883,0.0015,-0.008,0.0079,-30.9249,29.025,-25.3177,12.86186026,77.66472029,925.0079,-1
2025-02-13T05:43:10.662Z,-0.0218,-0.028,-0.1051,-0.0063,-0.0076,0.0135,-30.9249,29.025,-25.3177,12.86186026,77.66472029,925.0079,-1
2025-02-13T05:43:10.672Z,-0.0004,-0.0449,-0.1002,-0.0148,-0.0023,0.0131,-30.9249,29.025,-25.3177,12.86186026,77.66472029,925.0079,-1
2025-02-13T05:43:10.682Z,0.0335,-0.0576,-0.0945,-0.0197,0.0016,0.0116,-30.9249,29.025,-25.3177,12.86186026,77.66472029,925.0079,-1
2025-02-13T05:43:10.694Z,0.0686,-0.0628,-0.0754,-0.0241,0.0034,0.004,-30.9249,29.025,-25.3177,12.86186026,77.66472029,925.0079,-1
2025-02-13T05:43:10.702Z,0.1078,-0.081,-0.039,-0.0274,0.0029,-0.0082,-30.9249,29.025,-25.3177,12.86186026,77.66472029,925.0079,-1
2025-02-13T05:43:10.712Z,0.0811,-0.0811,0.004,-0.026,0.0036,-0.0188,-30.9249,29.025,-25.3177,12.86186026,77.66472029,925.0079,-1
2025-02-13T05:43:10.722Z,0.0724,-0.0825,0.0605,-0.0159,0.0066,-0.027,-30.9249,29.025,-25.3177,12.86186026,77.66472029,925.0079,-1
2025-02-13T05:43:10.732Z,0.0491,-0.0507,0.0945,-0.0033,0.0095,-0.0281,-30.9249,29.025,-25.3177,12.86186026,77.66472029,925.0079,-1
2025-02-13T05:43:10.743Z,-0.0098,-0.0354,0.0745,0.0048,0.0154,-0.0216,-30.9249,29.025,-25.3177,12.86186026,77.66472029,925.0079,-1
2025-02-13T05:43:10.752Z,-0.0466,-0.0437,0.0478,0.0086,0.0185,-0.0126,-30.9249,29.025,-25.3177,12.86186026,77.66472029,925.0079,-1
2025-02-13T05:43:10.762Z,-0.0363,-0.01,0.0261,0.0063,0.0139,-0.01,-30.9249,29.025,-25.3177,12.86186026,77.66472029,925.0079,-1
2025-02-13T05:43:10.772Z,-0.0438,0.0041,-0.0009,0.0007,0.0072,-0.0051,-30.9249,29.025,-25.3177,12.86186026,77.66472029,925.0079,-1
2025-02-13T05:43:10.782Z,-0.0334,-0.0047,-0.0136,-0.0078,0,-0.0029,-30.9249,29.025,-25.3177,12.86186026,77.66472029,925.0079,-1
2025-02-13T05:43:10.793Z,-0.0124,-0.0191,-0.0056,-0.0134,-0.0033,-0.0054,-30.9249,29.025,-25.3177,12.86186026,77.66472029,925.0079,-1
2025-02-13T05:43:10.802Z,0.0077,-0.0048,0.0251,-0.0126,-0.0099,-0.011,-30.9249,29.025,-25.3177,12.86186026,77.66472029,925.0079,-1
2025-02-13T05:43:10.812Z,0.0194,0.0004,0.0467,-0.0093,-0.0099,-0.0142,-30.9249,29.025,-25.3177,12.86186026,77.66472029,925.0079,-1
2025-02-13T05:43:10.822Z,0.0183,-0.0204,0.0538,-0.0029,0.0009,-0.0149,-30.9249,29.025,-25.3177,12.86186026,77.66472029,925.0079,-1
2025-02-13T05:43:10.832Z,-0.0236,-0.0169,0.0709,0.0052,0.0099,-0.0185,-30.9249,29.025,-25.3177,12.86186026,77.66472029,925.0079,-1
2025-02-13T05:43:10.843Z,-0.0407,0.0062,0.0715,0.0153,0.0123,-0.0134,-30.9249,29.025,-25.3177,12.86186026,77.66472029,925.0079,-1
2025-02-13T05:43:10.852Z,-0.0752,0.0107,0.0497,0.0213,0.0066,-0.005,-30.9249,29.025,-25.3177,12.86186026,77.66472029,925.0079,-1
2025-02-13T05:43:10.862Z,-0.0662,0.0081,-0.007,0.0179,-0.0005,0.0009,-30.9249,29.025,-25.3177,12.86186026,77.66472029,925.0079,-1
2025-02-13T05:43:10.872Z,-0.0289,0.014,-0.0709,0.0104,-0.0052,0.0067,-30.9249,29.025,-25.3177,12.86186026,77.66472029,925.0079,-1
2025-02-13T05:43:10.882Z,-0.0048,-0.0122,-0.107,-0.0025,-0.0071,0.0042,-30.9249,29.025,-25.3177,12.86186026,77.66472029,925.0079,-1
2025-02-13T05:43:10.893Z,-0.0002,-0.0247,-0.1229,-0.0143,-0.0031,0.0009,-30.9249,29.025,-25.3177,12.86186026,77.66472029,925.0079,-1
2025-02-13T05:43:10.902Z,0.008,-0.0318,-0.0973,-0.0205,-0.0003,-0.0002,-30.9249,29.025,-25.3177,12.86186026,77.66472029,925.0079,-1
2025-02-13T05:43:10.912Z,0.0122,-0.0562,-0.0413,-0.0178,0.0054,0,-30.9249,29.025,-25.3177,12.86186026,77.66472029,925.0079,-1
2025-02-13T05:43:10.922Z,-0.0013,-0.0603,-0.0247,-0.0145,0.0092,-0.0029,-30.9249,29.025,-25.3177,12.86186026,77.66472029,925.0079,-1
2025-02-13T05:43:10.932Z,0.0217,-0.0431,-0.0114,-0.0135,0.0138,-0.0029,-30.9249,29.025,-25.3177,12.86186026,77.66472029,925.0079,-1
2025-02-13T05:43:10.944Z,0.0214,-0.0235,-0.0043,-0.0119,0.0126,-0.0023,-30.9249,29.025,-25.3177,12.86186026,77.66472029,925.0079,-1
2025-02-13T05:43:10.952Z,0.0107,-0.0306,0.0126,-0.0104,0.0089,-0.006,-30.9249,29.025,-25.3177,12.86186026,77.66472029,925.0079,-1
2025-02-13T05:43:10.962Z,0.013,-0.0287,0.0124,-0.0115,0.006,-0.0063,-30.9249,29.025,-25.3177,12.86186026,77.66472029,925.0079,-1
2025-02-13T05:43:10.972Z,0.0322,-0.033,0.009,-0.0116,0.0053,-0.0047,-30.9249,29.025,-25.3177,12.86186026,77.66472029,925.0079,-1
2025-02-13T05:43:10.982Z,0.0156,-0.0497,0.0265,-0.0138,0.0058,-0.0051,-30.9249,29.025,-25.3177,12.86186026,77.66472029,925.0079,-1
2025-02-13T05:43:10.993Z,0.0154,-0.057,0.0412,-0.0114,0.0007,-0.0045,-30.9249,29.025,-25.3177,12.86186026,77.66472029,925.0079,-1
2025-02-13T05:43:11.002Z,0.0278,-0.0591,0.0721,-0.0084,-0.0027,-0.0092,-30.9249,29.025,-25.3177,12.86186026,77.66472029,925.0079,-1
2025-02-13T05:43:11.012Z,0.0349,-0.0351,0.0605,-0.0071,-0.003,-0.0088,-30.9249,29.025,-25.3177,12.86186026,77.66472029,925.0079,-1
2025-02-13T05:43:11.022Z,0.0191,-0.051,0.0675,-0.0049,-0.0032,-0.0159,-30.9249,29.025,-25.3177,12.86186026,77.66472029,925.0079,-1
2025-02-13T05:43:11.032Z,0.0148,-0.0445,0.095,0.0047,0.0031,-0.017,-30.9249,29.025,-25.3177,12.86186026,77.66472029,925.0079,-1
2025-02-13T05:43:11.044Z,0.0111,-0.0018,0.1054,0.0162,0.0051,-0.016,-30.9249,29.025,-25.3177,12.86186026,77.66472029,925.0079,-1
2025-02-13T05:43:11.052Z,-0.0044,-0.0186,0.0729,0.0202,0.0076,-0.0154,-30.9249,29.025,-25.3177,12.86186026,77.66472029,925.0079,-1
2025-02-13T05:43:11.062Z,-0.0138,-0.0094,0.0216,0.0211,0.0103,-0.0152,-30.9249,29.025,-25.3177,12.86186026,77.66472029,925.0079,-1
2025-02-13T05:43:11.072Z,-0.031,-0.0256,-0.0378,0.0172,0.0041,-0.0128,-30.9249,29.025,-25.3177,12.86186026,77.66472029,925.0079,-1
2025-02-13T05:43:11.082Z,-0.0171,-0.0118,-0.0566,0.0123,-0.0032,-0.0105,-30.9249,29.025,-25.3177,12.86186026,77.66472029,925.0079,-1
2025-02-13T05:43:11.092Z,0.0089,-0.0208,-0.0904,0.0036,-0.0062,-0.0123,-30.9249,29.025,-25.3177,12.86186026,77.66472029,925.0079,-1
2025-02-13T05:43:11.102Z,0.0101,-0.0379,-0.1079,-0.0073,-0.0062,-0.0165,-30.9249,29.025,-25.3177,12.86186026,77.66472029,925.0079,-1
2025-02-13T05:43:11.112Z,-0.0104,-0.0259,-0.1004,-0.0174,-0.008,-0.0154,-30.9249,29.025,-25.3177,12.86186026,77.66472029,925.0079,-1
2025-02-13T05:43:11.122Z,-0.0777,-0.0244,-0.038,-0.0162,-0.0136,-0.0087,-30.9249,29.025,-25.3177,12.86186026,77.66472029,925.0079,-1
2025-02-13T05:43:11.132Z,-0.0946,-0.0173,0.0006,-0.0085,-0.0125,0.0015,-30.9249,29.025,-25.3177,12.86186026,77.66472029,925.0079,-1
2025-02-13T05:43:11.144Z,-0.0546,-0.01,0.0207,-0.0003,-0.0035,0.0103,-30.9249,29.025,-25.3177,12.86186026,77.66472029,925.0079,-1
2025-02-13T05:43:11.152Z,0.0327,-0.0078,-0.01,0.0024,0.01,0.009,-30.9249,29.025,-25.3177,12.86186026,77.66472029,925.0079,-1
2025-02-13T05:43:11.162Z,0.0926,-0.0211,-0.018,0.0002,0.0227,-0.0033,-30.9249,29.025,-25.3177,12.86186026,77.66472029,925.0079,-1
2025-02-13T05:43:11.172Z,0.0736,-0.0251,-0.0115,-0.0049,0.0286,-0.0158,-30.9249,29.025,-25.3177,12.86186026,77.66472029,925.0079,-1
2025-02-13T05:43:11.182Z,0.0123,-0.0257,0.0105,-0.007,0.0202,-0.0195,-30.9249,29.025,-25.3177,12.86186026,77.66472029,925.0079,-1
2025-02-13T05:43:11.194Z,-0.0286,-0.0201,0.0213,-0.0093,0.0055,-0.0174,-30.9249,29.025,-25.3177,12.86186026,77.66472029,925.0079,-1
2025-02-13T05:43:11.202Z,-0.0869,-0.0266,0.0264,-0.0111,-0.0067,-0.0086,-30.9249,29.025,-25.3177,12.86186026,77.66472029,925.0079,-1
2025-02-13T05:43:11.212Z,-0.0978,-0.0139,0.0295,-0.0138,-0.0159,-0.0002,-30.9249,29.025,-25.3177,12.86186026,77.66472029,925.0079,-1
2025-02-13T05:43:11.222Z,-0.0521,0.01,0.0377,-0.0124,-0.0178,0.008,-30.9249,29.025,-25.3177,12.86186026,77.66472029,925.0079,-1
2025-02-13T05:43:11.232Z,0.0172,-0.0029,0.0462,-0.0096,-0.0138,0.0073,-30.9249,29.025,-25.3177,12.86186026,77.66472029,925.0079,-1
2025-02-13T05:43:11.243Z,0.0345,-0.0119,0.0535,-0.0043,-0.0039,0.0022,-30.9249,29.025,-25.3177,12.86186026,77.66472029,925.0079,-1
2025-02-13T05:43:11.252Z,0.0097,-0.0206,0.0485,0.0024,0.006,-0.0069,-30.9249,29.025,-25.3177,12.86186026,77.66472029,925.0079,-1
2025-02-13T05:43:11.262Z,-0.0205,-0.0108,0.0386,0.0115,0.012,-0.0077,-30.9249,29.025,-25.3177,12.86186026,77.66472029,925.0079,-1
2025-02-13T05:43:11.272Z,-0.0618,-0.0362,-0.0011,0.0139,0.0122,0.0019,-30.9249,29.025,-25.3177,12.86186026,77.66472029,925.0079,-1
2025-02-13T05:43:11.282Z,-0.0605,-0.0138,-0.0389,0.0066,0.0067,0.0122,-30.9249,29.025,-25.3177,12.86186026,77.66472029,925.0079,-1
2025-02-13T05:43:11.293Z,-0.0473,-0.0258,-0.0654,-0.0052,-0.0025,0.0121,-30.9249,29.025,-25.3177,12.86186026,77.66472029,925.0079,-1
2025-02-13T05:43:11.302Z,-0.0287,-0.0232,-0.0566,-0.017,-0.0151,0.0078,-30.9249,29.025,-25.3177,12.86186026,77.66472029,925.0079,-1
2025-02-13T05:43:11.312Z,0.0008,-0.0149,-0.0195,-0.0225,-0.0254,0.0036,-30.9249,29.025,-25.3177,12.86186026,77.66472029,925.0079,-1
2025-02-13T05:43:11.322Z,0.0228,-0.0204,0.0375,-0.0183,-0.0215,0.0038,-30.9249,29.025,-25.3177,12.86186026,77.66472029,925.0079,-1
2025-02-13T05:43:11.332Z,0.0332,-0.0322,0.0875,-0.0062,-0.013,-0.0001,-30.9249,29.025,-25.3177,12.86186026,77.66472029,925.0079,-1
2025-02-13T05:43:11.344Z,0.0341,-0.019,0.0999,0.0118,0.002,-0.0011,-30.9249,29.025,-25.3177,12.86186026,77.66472029,925.0079,-1
2025-02-13T05:43:11.352Z,0.0209,-0.0494,0.0628,0.0264,0.0157,-0.0004,-30.9249,29.025,-25.3177,12.86186026,77.66472029,925.0079,-1
2025-02-13T05:43:11.363Z,0.0199,-0.0383,-0.0046,0.03,0.0225,0.003,-30.9249,29.025,-25.3177,12.86186026,77.66472029,925.0079,-1
2025-02-13T05:43:11.372Z,0.0238,-0.0479,-0.0762,0.0236,0.0204,0.004,-30.9249,29.025,-25.3177,12.86186026,77.66472029,925.0079,-1
2025-02-13T05:43:11.382Z,0.037,-0.0566,-0.1226,0.0049,0.0145,0.0036,-30.9249,29.025,-25.3177,12.86186026,77.66472029,925.0079,-1
2025-02-13T05:43:11.394Z,0.022,-0.0602,-0.1163,-0.0101,0.0009,-0.0018,-30.9249,29.025,-25.3177,12.86186026,77.66472029,925.0079,-1
2025-02-13T05:43:11.402Z,0.0149,-0.0682,-0.0715,-0.0221,-0.0116,-0.004,-30.9249,29.025,-25.3177,12.86186026,77.66472029,925.0079,-1
2025-02-13T05:43:11.412Z,0.0181,-0.0423,-0.0211,-0.0234,-0.0203,-0.0019,-30.9249,29.025,-25.3177,12.86186026,77.66472029,925.0079,-1
2025-02-13T05:43:11.422Z,0.0194,-0.0261,0.0126,-0.0194,-0.0192,-0.0034,-30.9249,29.025,-25.3177,12.86186026,77.66472029,925.0079,-1
2025-02-13T05:43:11.432Z,0.006,-0.0217,0.057,-0.0093,-0.0101,-0.0034,-30.9249,29.025,-25.3177,12.86186026,77.66472029,925.0079,-1
2025-02-13T05:43:11.449Z,0.0278,-0.0365,0.0599,0.0044,-0.0008,-0.0031,-30.9249,29.025,-25.3177,12.86186026,77.66472029,925.0079,-1
2025-02-13T05:43:11.452Z,0.056,-0.0325,0.05,0.0129,0.0115,-0.005,-30.9249,29.025,-25.3177,12.86186026,77.66472029,925.0079,-1
2025-02-13T05:43:11.462Z,0.0511,-0.0362,0.0032,0.0162,0.0185,-0.0099,-30.9249,29.025,-25.3177,12.86186026,77.66472029,925.0079,-1
2025-02-13T05:43:11.472Z,0.0319,-0.0535,-0.0225,0.0111,0.0159,-0.012,-30.9249,29.025,-25.3177,12.86186026,77.66472029,925.0079,-1
2025-02-13T05:43:11.482Z,0.0299,-0.0309,-0.0518,0.005,0.0059,-0.0132,-30.9249,29.025,-25.3177,12.86186026,77.66472029,925.0079,-1
2025-02-13T05:43:11.493Z,0.0245,-0.0345,-0.0732,-0.0038,-0.0001,-0.0177,-30.9249,29.025,-25.3177,12.86186026,77.66472029,925.0079,-1
2025-02-13T05:43:11.502Z,-0.0345,-0.0249,-0.0947,-0.0106,0.0018,-0.0179,-30.9249,29.025,-25.3177,12.86186026,77.66472029,925.0079,-1
2025-02-13T05:43:11.513Z,-0.0595,-0.012,-0.0742,-0.0158,0.004,-0.0094,-30.9249,29.025,-25.3177,12.86186026,77.66472029,925.0079,-1
2025-02-13T05:43:11.522Z,-0.0613,0.0137,-0.0672,-0.0226,0.0057,-0.0056,-30.9249,29.025,-25.3177,12.86186026,77.66472029,925.0079,-1
2025-02-13T05:43:11.532Z,-0.0596,0.0175,-0.0613,-0.0301,-0.002,-0.0015,-30.9249,29.025,-25.3177,12.86186026,77.66472029,925.0079,-1
2025-02-13T05:43:11.544Z,-0.0499,0.0108,-0.0264,-0.031,-0.0047,-0.0009,-30.9249,29.025,-25.3177,12.86186026,77.66472029,925.0079,-1
2025-02-13T05:43:11.552Z,-0.0354,0.0077,0.0381,-0.0272,-0.0068,0,-30.9249,29.025,-25.3177,12.86186026,77.66472029,925.0079,-1
2025-02-13T05:43:11.562Z,-0.0564,-0.0024,0.082,-0.0196,-0.0025,0.0035,-30.9249,29.025,-25.3177,12.86186026,77.66472029,925.0079,-1
2025-02-13T05:43:11.572Z,-0.0475,-0.0063,0.1129,-0.0073,0.0022,0.006,-30.9249,29.025,-25.3177,12.86186026,77.66472029,925.0079,-1
2025-02-13T05:43:11.583Z,-0.0461,-0.0021,0.1088,0.0042,0.0089,0.0069,-30.9249,29.025,-25.3177,12.86186026,77.66472029,925.0079,-1
2025-02-13T05:43:11.594Z,-0.0461,0.0024,0.079,0.0083,0.0117,0.0053,-30.9249,29.025,-25.3177,12.86186026,77.66472029,925.0079,-1
2025-02-13T05:43:11.603Z,-0.0637,0.0154,0.0408,0.0076,0.0078,0.0077,-30.9249,29.025,-25.3177,12.86186026,77.66472029,925.0079,-1
2025-02-13T05:43:11.613Z,-0.0508,0.0296,0.0117,-0.0023,0.0027,0.0099,-30.9249,29.025,-25.3177,12.86186026,77.66472029,925.0079,-1
2025-02-13T05:43:11.623Z,-0.0334,0.0217,0.0049,-0.0071,-0.0101,0.0129,-30.9249,29.025,-25.3177,12.86186026,77.66472029,925.0079,-1
2025-02-13T05:43:11.632Z,-0.036,-0.0035,0.0113,-0.0087,-0.0173,0.0155,-30.9249,29.025,-25.3177,12.86186026,77.66472029,925.0079,-1
2025-02-13T05:43:11.643Z,-0.0151,-0.0284,0.0381,-0.0074,-0.0246,0.0168,-30.9249,29.025,-25.3177,12.86186026,77.66472029,925.0079,-1
2025-02-13T05:43:11.652Z,-0.0086,-0.0312,0.0355,-0.0022,-0.0219,0.0152,-30.9249,29.025,-25.3177,12.86186026,77.66472029,925.0079,-1
2025-02-13T05:43:11.663Z,-0.0124,-0.0345,0.0197,0.0032,-0.0143,0.0153,-30.9249,29.025,-25.3177,12.86186026,77.66472029,925.0079,-1
2025-02-13T05:43:11.673Z,0.0249,-0.0489,0.004,0.0066,-0.006,0.0136,-30.9249,29.025,-25.3177,12.86186026,77.66472029,925.0079,-1
2025-02-13T05:43:11.683Z,0.0555,-0.0478,-0.03,0.0088,0.0015,0.0092,-30.9249,29.025,-25.3177,12.86186026,77.66472029,925.0079,-1
2025-02-13T05:43:11.693Z,0.0553,-0.0564,-0.0705,0.0065,0.005,0.0059,-30.9249,29.025,-25.3177,12.86186026,77.66472029,925.0079,-1
2025-02-13T05:43:11.703Z,0.051,-0.0514,-0.0728,0.001,0.0019,-0.0007,-30.9249,29.025,-25.3177,12.86186026,77.66472029,925.0079,-1
2025-02-13T05:43:11.713Z,0.0119,-0.0536,-0.0503,-0.0034,-0.0047,-0.0013,-30.9249,29.025,-25.3177,12.86186026,77.66472029,925.0079,-1
2025-02-13T05:43:11.723Z,-0.0179,-0.0479,-0.0544,-0.0057,-0.0079,0.0018,-30.9249,29.025,-25.3177,12.86186026,77.66472029,925.0079,-1
2025-02-13T05:43:11.733Z,-0.0316,-0.0604,-0.0576,-0.0095,-0.0068,0.0135,-30.9249,29.025,-25.3177,12.86186026,77.66472029,925.0079,-1
2025-02-13T05:43:11.743Z,0.0328,-0.0454,-0.0582,-0.0141,-0.0018,0.0182,-30.9249,29.025,-25.3177,12.86186026,77.66472029,925.0079,-1
2025-02-13T05:43:11.753Z,0.0834,-0.0699,-0.0332,-0.0178,0.0059,0.0122,-30.9249,29.025,-25.3177,12.86186026,77.66472029,925.0079,-1
2025-02-13T05:43:11.763Z,0.0929,-0.0774,-0.0014,-0.0182,0.0095,-0.0025,-30.9249,29.025,-25.3177,12.86186026,77.66472029,925.0079,-1
2025-02-13T05:43:11.773Z,0.0687,-0.0615,0.0498,-0.0174,0.0096,-0.0138,-30.9249,29.025,-25.3177,12.86186026,77.66472029,925.0079,-1
2025-02-13T05:43:11.783Z,0.0195,-0.0468,0.0977,-0.0069,0.0053,-0.0162,-30.9249,29.025,-25.3177,12.86186026,77.66472029,925.0079,-1
2025-02-13T05:43:11.793Z,-0.021,-0.0219,0.1214,0.0037,-0.0022,-0.0139,-30.9249,29.025,-25.3177,12.86186026,77.66472029,925.0079,-1
2025-02-13T05:43:11.803Z,-0.0143,0.006,0.0999,0.0126,-0.0067,-0.0075,-30.9249,29.025,-25.3177,12.86186026,77.66472029,925.0079,-1
2025-02-13T05:43:11.813Z,-0.0092,-0.0157,0.0345,0.0104,-0.005,-0.0073,-30.9249,29.025,-25.3177,12.86186026,77.66472029,925.0079,-1
2025-02-13T05:43:11.823Z,0.0062,-0.0243,-0.0198,0.0032,-0.0012,-0.0114,-30.9249,29.025,-25.3177,12.86186026,77.66472029,925.0079,-1
2025-02-13T05:43:11.833Z,-0.0095,-0.0144,-0.0153,-0.0016,0.0039,-0.011,-30.9249,29.025,-25.3177,12.86186026,77.66472029,925.0079,-1
2025-02-13T05:43:11.844Z,-0.0652,-0.0239,0.015,-0.0012,0.001,-0.0077,-30.9249,29.025,-25.3177,12.86186026,77.66472029,925.0079,-1
2025-02-13T05:43:11.853Z,-0.0699,-0.0071,0.045,0.0062,-0.0064,0.0023,-30.9249,29.025,-25.3177,12.86186026,77.66472029,925.0079,-1
2025-02-13T05:43:11.863Z,-0.0603,0.0144,0.0412,0.012,-0.0141,0.0067,-30.9249,29.025,-25.3177,12.86186026,77.66472029,925.0079,-1
2025-02-13T05:43:11.873Z,-0.0214,0.0246,-0.0241,0.0143,-0.0239,0.0056,-30.9249,29.025,-25.3177,12.86186026,77.66472029,925.0079,-1
2025-02-13T05:43:11.882Z,-0.0214,0.0246,-0.0241,0.0053,-0.0222,0.0013,-30.9249,29.025,-25.3177,12.86186026,77.66472029,925.0079,-1
2025-02-13T05:43:11.892Z,0.0218,0.0021,-0.1039,-0.0068,-0.0091,-0.0009,-30.9249,29.025,-25.3177,12.86186026,77.66472029,925.0079,-1
2025-02-13T05:43:11.902Z,0.0069,0.0022,-0.1712,-0.0178,0.0054,0.0045,-30.9249,29.025,-25.3177,12.86186026,77.66472029,925.0079,-1
2025-02-13T05:43:11.913Z,-0.0355,-0.0271,-0.0983,-0.0227,0.017,0.0135,-30.9249,29.025,-25.3177,12.86186026,77.66472029,925.0079,-1
2025-02-13T05:43:11.922Z,-0.0355,-0.0271,-0.0983,-0.0232,0.0168,0.0165,-30.9249,29.025,-25.3177,12.86186026,77.66472029,925.0079,-1
2025-02-13T05:43:11.933Z,-0.0141,-0.0507,0.0153,-0.0193,0.0098,0.0138,-30.9249,29.025,-25.3177,12.86186026,77.66472029,925.0079,-1
2025-02-13T05:43:11.944Z,0.0315,-0.0533,0.0168,-0.0169,-0.001,0.0081,-30.9249,29.025,-25.3177,12.86186026,77.66472029,925.0079,-1
2025-02-13T05:43:11.953Z,0.0651,-0.0494,0.0382,-0.0206,-0.0107,0.0005,-30.9249,29.025,-25.3177,12.86186026,77.66472029,925.0079,-1
2025-02-13T05:43:11.962Z,0.0651,-0.0494,0.0382,-0.0221,-0.013,-0.0072,-30.9249,29.025,-25.3177,12.86186026,77.66472029,925.0079,-1
2025-02-13T05:43:11.972Z,0.0646,-0.0498,0.0394,-0.0172,-0.0084,-0.0081,-30.9249,29.025,-25.3177,12.86186026,77.66472029,925.0079,-1
2025-02-13T05:43:11.982Z,0.0189,-0.0497,0.0668,-0.0072,0.0027,-0.0031,-30.9249,29.025,-25.3177,12.86186026,77.66472029,925.0079,-1
2025-02-13T05:43:11.992Z,-0.0149,-0.0164,0.1043,0.0065,0.0117,0.0076,-30.9249,29.025,-25.3177,12.86186026,77.66472029,925.0079,-1
2025-02-13T05:43:12.002Z,-0.0292,-0.0347,0.1174,0.0164,0.0145,0.0119,-30.9249,29.025,-25.3177,12.86186026,77.66472029,925.0079,-1
2025-02-13T05:43:12.012Z,-0.0177,-0.045,0.0668,0.0206,0.0128,0.0074,-30.9249,29.025,-25.3177,12.86186026,77.66472029,925.0079,-1
2025-02-13T05:43:12.022Z,0.0418,-0.0467,0.0226,0.0138,0.0089,-0.007,-30.9249,29.025,-25.3177,12.86186026,77.66472029,925.0079,-1
2025-02-13T05:43:12.032Z,0.0881,-0.0595,-0.0337,0.0044,0.0033,-0.0158,-30.9249,29.025,-25.3177,12.86186026,77.66472029,925.0079,-1
2025-02-13T05:43:12.042Z,0.068,-0.0524,-0.0748,-0.004,-0.0014,-0.0197,-30.9249,29.025,-25.3177,12.86186026,77.66472029,925.0079,-1
2025-02-13T05:43:12.052Z,0.0165,-0.0308,-0.0726,-0.0118,-0.0029,-0.0094,-30.9249,29.025,-25.3177,12.86186026,77.66472029,925.0079,-1
2025-02-13T05:43:12.062Z,-0.0639,-0.015,-0.0493,-0.0133,-0.0093,0.0048,-30.9249,29.025,-25.3177,12.86186026,77.66472029,925.0079,-1
2025-02-13T05:43:12.072Z,-0.0974,0.0028,-0.0355,-0.012,-0.0106,0.0144,-30.9249,29.025,-25.3177,12.86186026,77.66472029,925.0079,-1
2025-02-13T05:43:12.082Z,-0.0366,-0.0009,-0.0197,-0.0099,-0.0112,0.0111,-30.9249,29.025,-25.3177,12.86186026,77.66472029,925.0079,-1
2025-02-13T05:43:12.094Z,0.0649,-0.0377,-0.0347,-0.0119,-0.0018,0.0008,-30.9249,29.025,-25.3177,12.86186026,77.66472029,925.0079,-1
2025-02-13T05:43:12.102Z,0.0649,-0.0377,-0.0347,-0.009,0.0079,-0.0123,-30.9249,29.025,-25.3177,12.86186026,77.66472029,925.0079,-1
2025-02-13T05:43:12.112Z,0.0935,-0.0595,-0.0215,-0.0058,0.0091,-0.0186,-30.9249,29.025,-25.3177,12.86186026,77.66472029,925.0079,-1
2025-02-13T05:43:12.122Z,0.0793,-0.0458,0.0329,-0.002,0.0125,-0.0237,-30.9249,29.025,-25.3177,12.86186026,77.66472029,925.0079,-1
2025-02-13T05:43:12.132Z,0.0105,-0.0489,0.0501,0.0021,0.009,-0.0159,-30.9249,29.025,-25.3177,12.86186026,77.66472029,925.0079,-1
2025-02-13T05:43:12.142Z,-0.0747,-0.0326,0.0499,0.0038,0.0012,-0.0059,-30.9249,29.025,-25.3177,12.86186026,77.66472029,925.0079,-1
2025-02-13T05:43:12.152Z,-0.0847,0.0016,0.0344,-0.0041,0.0005,0.0025,-30.9249,29.025,-25.3177,12.86186026,77.66472029,925.0079,-1
2025-02-13T05:43:12.162Z,-0.0876,0.0187,0.0004,-0.0112,-0.0026,0.0053,-30.9249,29.025,-25.3177,12.86186026,77.66472029,925.0079,-1
2025-02-13T05:43:12.172Z,-0.0571,0.0033,-0.005,-0.0155,-0.0084,0.0078,-30.9249,29.025,-25.3177,12.86186026,77.66472029,925.0079,-1
2025-02-13T05:43:12.182Z,0.0055,-0.0117,0.027,-0.0122,-0.0115,-0.0006,-30.9249,29.025,-25.3177,12.86186026,77.66472029,925.0079,-1
2025-02-13T05:43:12.192Z,0.0342,-0.0382,0.0345,-0.0087,-0.0097,-0.0103,-30.9249,29.025,-25.3177,12.86186026,77.66472029,925.0079,-1
2025-02-13T05:43:12.202Z,0.0445,-0.0477,0.033,-0.001,-0.0084,-0.0143,-30.9249,29.025,-25.3177,12.86186026,77.66472029,925.0079,-1
2025-02-13T05:43:12.212Z,0.0376,-0.0558,0.0429,0.0026,-0.0062,-0.0159,-30.9249,29.025,-25.3177,12.86186026,77.66472029,925.0079,-1
2025-02-13T05:43:12.222Z,0.0212,-0.0457,0.0255,0.0065,-0.0037,-0.0145,-30.9249,29.025,-25.3177,12.86186026,77.66472029,925.0079,-1
2025-02-13T05:43:12.232Z,-0.0086,-0.0513,-0.0195,0.0061,0.0039,-0.0087,-30.9249,29.025,-25.3177,12.86186026,77.66472029,925.0079,-1
2025-02-13T05:43:12.242Z,-0.0424,-0.0327,-0.0531,0.0023,0.0154,-0.0045,-30.9249,29.025,-25.3177,12.86186026,77.66472029,925.0079,-1
2025-02-13T05:43:12.252Z,-0.0762,-0.0185,-0.0645,0.0032,0.0257,0.0031,-30.9249,29.025,-25.3177,12.86186026,77.66472029,925.0079,-1
2025-02-13T05:43:12.262Z,-0.0949,0.0003,-0.0564,-0.0041,0.0236,0.0095,-30.9249,29.025,-25.3177,12.86186026,77.66472029,925.0079,-1
2025-02-13T05:43:12.272Z,-0.0739,0.0282,-0.0435,-0.0173,0.0121,0.0093,-30.9249,29.025,-25.3177,12.86186026,77.66472029,925.0079,-1
2025-02-13T05:43:12.282Z,-0.0421,0.0375,-0.0296,-0.0382,-0.0021,0.0028,-30.9249,29.025,-25.3177,12.86186026,77.66472029,925.0079,-1
2025-02-13T05:43:12.292Z,-0.0672,0.0219,-0.0045,-0.0545,-0.0151,-0.0043,-30.9249,29.025,-25.3177,12.86186026,77.66472029,925.0079,-1
2025-02-13T05:43:12.302Z,-0.0795,0.0402,0.0977,-0.057,-0.0209,-0.0012,-30.9249,29.025,-25.3177,12.86186026,77.66472029,925.0079,-1
2025-02-13T05:43:12.312Z,-0.1061,0.0453,0.2307,-0.0413,-0.0241,0.0041,-30.9249,29.025,-25.3177,12.86186026,77.66472029,925.0079,-1
2025-02-13T05:43:12.322Z,-0.1398,0.0445,0.3989,-0.0095,-0.0297,0.0118,-30.9249,29.025,-25.3177,12.86186026,77.66472029,925.0079,-1
2025-02-13T05:43:12.332Z,-0.1715,0.0585,0.5307,0.028,-0.0397,0.015,-30.9249,29.025,-25.3177,12.86186026,77.66472029,925.0079,-1
2025-02-13T05:43:12.342Z,-0.1909,0.0561,0.5713,0.0654,-0.0602,0.0263,-30.9249,29.025,-25.3177,12.86186026,77.66472029,925.0079,-1
2025-02-13T05:43:12.352Z,-0.1783,0.0565,0.4893,0.0902,-0.0766,0.0312,-30.9249,29.025,-25.3177,12.86186026,77.66472029,925.0079,-1
2025-02-13T05:43:12.362Z,-0.1136,0.0742,0.3676,0.1,-0.0931,0.0311,-30.9249,29.025,-25.3177,12.86186026,77.66472029,925.0079,-1
2025-02-13T05:43:12.372Z,-0.052,0.0606,0.1297,0.0904,-0.097,0.029,-30.9249,29.025,-25.3177,12.86186026,77.66472029,925.0079,-1
2025-02-13T05:43:12.382Z,0.0278,0.0335,-0.1158,0.0703,-0.097,0.0259,-30.9249,29.025,-25.3177,12.86186026,77.66472029,925.0079,-1
2025-02-13T05:43:12.392Z,0.0613,0.0157,-0.3288,0.044,-0.088,0.0205,-30.9249,29.025,-25.3177,12.86186026,77.66472029,925.0079,-1
2025-02-13T05:43:12.402Z,0.0745,-0.0024,-0.4851,0.0131,-0.0847,0.022,-30.9249,29.025,-25.3177,12.86186026,77.66472029,925.0079,-1
2025-02-13T05:43:12.412Z,0.0688,-0.0366,-0.5943,-0.0122,-0.0767,0.026,-30.9249,29.025,-25.3177,12.86186026,77.66472029,925.0079,-1
2025-02-13T05:43:12.422Z,0.0559,-0.0812,-0.6467,-0.0364,-0.0622,0.0319,-30.9249,29.025,-25.3177,12.86186026,77.66472029,925.0079,-1
2025-02-13T05:43:12.432Z,0.0596,-0.103,-0.6758,-0.0655,-0.0464,0.0398,-30.9249,29.025,-25.3177,12.86186026,77.66472029,925.0079,-1
2025-02-13T05:43:12.442Z,0.0841,-0.1227,-0.7146,-0.0937,-0.0201,0.0388,-30.9249,29.025,-25.3177,12.86186026,77.66472029,925.0079,-1
2025-02-13T05:43:12.452Z,0.1172,-0.1776,-0.6709,-0.1269,0.0065,0.0337,-30.9249,29.025,-25.3177,12.86186026,77.66472029,925.0079,-1
2025-02-13T05:43:12.462Z,0.1565,-0.1811,-0.5988,-0.1635,0.0318,0.0268,-30.9249,29.025,-25.3177,12.86186026,77.66472029,925.0079,-1
2025-02-13T05:43:12.472Z,0.2215,-0.195,-0.475,-0.1887,0.0359,0.011,-30.9249,29.025,-25.3177,12.86186026,77.66472029,925.0079,-1
2025-02-13T05:43:12.482Z,0.2292,-0.1961,-0.2255,-0.1827,0.0219,0.0019,-30.9249,29.025,-25.3177,12.86186026,77.66472029,925.0079,-1
2025-02-13T05:43:12.497Z,0.2061,-0.1581,0.0886,-0.1418,0.0085,-0.0041,-30.9249,29.025,-25.3177,12.86186026,77.66472029,925.0079,-1
2025-02-13T05:43:12.502Z,0.1985,-0.1435,0.4116,-0.0815,0.0106,-0.0071,-30.9249,29.025,-25.3177,12.86186026,77.66472029,925.0079,-1
2025-02-13T05:43:12.512Z,0.1849,-0.128,0.6027,-0.0195,0.0218,-0.0152,-30.9249,29.025,-25.3177,12.86186026,77.66472029,925.0079,-1
2025-02-13T05:43:12.522Z,0.1826,-0.1402,0.6236,0.0288,0.0271,-0.031,-30.9249,29.025,-25.3177,12.86186026,77.66472029,925.0079,-1
2025-02-13T05:43:12.532Z,0.197,-0.146,0.5345,0.0525,0.0336,-0.0516,-30.9249,29.025,-25.3177,12.86186026,77.66472029,925.0079,-1
2025-02-13T05:43:12.542Z,0.2098,-0.1258,0.3446,0.0498,0.0415,-0.0646,-30.9249,29.025,-25.3177,12.86186026,77.66472029,925.0079,-1
2025-02-13T05:43:12.552Z,0.1682,-0.1044,0.1757,0.0412,0.0434,-0.0728,-30.9249,29.025,-25.3177,12.86186026,77.66472029,925.0079,-1
2025-02-13T05:43:12.562Z,0.0631,-0.0766,0.074,0.0275,0.0376,-0.0658,-30.9249,29.025,-25.3177,12.86186026,77.66472029,925.0079,-1
2025-02-13T05:43:12.572Z,-0.0428,-0.0265,0.0583,0.022,0.0221,-0.0502,-30.9249,29.025,-25.3177,12.86186026,77.66472029,925.0079,-1
2025-02-13T05:43:12.582Z,-0.1365,-0.0145,0.0685,0.0229,0.0049,-0.0305,-30.9249,29.025,-25.3177,12.86186026,77.66472029,925.0079,-1
2025-02-13T05:43:12.592Z,-0.1569,-0.0018,0.0698,0.0195,-0.0069,-0.0181,-30.9249,29.025,-25.3177,12.86186026,77.66472029,925.0079,-1
2025-02-13T05:43:12.602Z,-0.1389,-0.0056,0.0293,0.0185,-0.0121,-0.0138,-30.9249,29.025,-25.3177,12.86186026,77.66472029,925.0079,-1
2025-02-13T05:43:12.612Z,-0.0623,-0.0095,-0.0412,0.0153,-0.0037,-0.0192,-30.9249,29.025,-25.3177,12.86186026,77.66472029,925.0079,-1
2025-02-13T05:43:12.622Z,0.02,-0.014,-0.0607,0.015,0.0082,-0.0312,-30.9249,29.025,-25.3177,12.86186026,77.66472029,925.0079,-1
2025-02-13T05:43:12.632Z,0.0599,-0.0148,-0.09,0.0135,0.0186,-0.0414,-30.9249,29.025,-25.3177,12.86186026,77.66472029,925.0079,-1
2025-02-13T05:43:12.642Z,0.0257,0.0065,-0.1131,0.0105,0.0312,-0.0497,-30.9249,29.025,-25.3177,12.86186026,77.66472029,925.0079,-1
2025-02-13T05:43:12.652Z,-0.0196,0.0083,-0.1189,0.008,0.0366,-0.0464,-30.9249,29.025,-25.3177,12.86186026,77.66472029,925.0079,-1
2025-02-13T05:43:12.662Z,-0.0992,0.0055,-0.1037,0.0003,0.0351,-0.0404,-30.9249,29.025,-25.3177,12.86186026,77.66472029,925.0079,-1
2025-02-13T05:43:12.672Z,-0.1513,0.0234,-0.0918,-0.0101,0.0293,-0.0319,-30.9249,29.025,-25.3177,12.86186026,77.66472029,925.0079,-1
2025-02-13T05:43:12.682Z,-0.1627,0.0744,-0.083,-0.0256,0.0219,-0.0251,-30.9249,29.025,-25.3177,12.86186026,77.66472029,925.0079,-1
2025-02-13T05:43:12.692Z,-0.1647,0.0976,-0.055,-0.0377,0.0018,-0.0146,-30.9249,29.025,-25.3177,12.86186026,77.66472029,925.0079,-1
2025-02-13T05:43:12.702Z,-0.197,0.1138,-0.0144,-0.0395,-0.0158,-0.0027,-30.9249,29.025,-25.3177,12.86186026,77.66472029,925.0079,-1
2025-02-13T05:43:12.712Z,-0.2129,0.1263,0.0366,-0.0367,-0.0181,0.0098,-30.9249,29.025,-25.3177,12.86186026,77.66472029,925.0079,-1
2025-02-13T05:43:12.722Z,-0.2088,0.1173,0.0927,-0.0294,-0.0161,0.0198,-30.9249,29.025,-25.3177,12.86186026,77.66472029,925.0079,-1
2025-02-13T05:43:12.732Z,-0.1778,0.0882,0.1308,-0.0138,-0.0101,0.0199,-30.9249,29.025,-25.3177,12.86186026,77.66472029,925.0079,-1
2025-02-13T05:43:12.743Z,-0.1422,0.0688,0.1652,-0.0023,-0.0013,0.0182,-30.9249,29.025,-25.3177,12.86186026,77.66472029,925.0079,-1
2025-02-13T05:43:12.752Z,-0.1139,0.056,0.1837,0.0008,0.0087,0.0137,-30.9249,29.025,-25.3177,12.86186026,77.66472029,925.0079,-1
2025-02-13T05:43:12.762Z,-0.0992,0.0801,0.1553,-0.0012,0.0038,0.0113,-30.9249,29.025,-25.3177,12.86186026,77.66472029,925.0079,-1
2025-02-13T05:43:12.772Z,-0.1198,0.1112,0.1651,-0.0034,-0.0053,0.0165,-30.9249,29.025,-25.3177,12.86186026,77.66472029,925.0079,-1
2025-02-13T05:43:12.782Z,-0.1747,0.125,0.1852,0.0037,-0.0157,0.0245,-30.9249,29.025,-25.3177,12.86186026,77.66472029,925.0079,-1
2025-02-13T05:43:12.792Z,-0.2695,0.1067,0.2405,0.0128,-0.0291,0.0381,-30.9249,29.025,-25.3177,12.86186026,77.66472029,925.0079,-1
2025-02-13T05:43:12.802Z,-0.34,0.1191,0.2873,0.0256,-0.0371,0.0559,-30.9249,29.025,-25.3177,12.86186026,77.66472029,925.0079,-1
2025-02-13T05:43:12.812Z,-0.3449,0.1365,0.2846,0.0342,-0.0459,0.0696,-30.9249,29.025,-25.3177,12.86186026,77.66472029,925.0079,-1
2025-02-13T05:43:12.822Z,-0.3231,0.1399,0.2613,0.0381,-0.0559,0.0855,-30.9249,29.025,-25.3177,12.86186026,77.66472029,925.0079,-1
2025-02-13T05:43:12.832Z,-0.2719,0.1564,0.2225,0.041,-0.0659,0.0919,-30.9249,29.025,-25.3177,12.86186026,77.66472029,925.0079,-1
2025-02-13T05:43:12.842Z,-0.2138,0.1698,0.1823,0.0399,-0.0748,0.099,-30.9249,29.025,-25.3177,12.86186026,77.66472029,925.0079,-1
2025-02-13T05:43:12.852Z,-0.1584,0.1812,0.142,0.0392,-0.0782,0.1069,-30.9249,29.025,-25.3177,12.86186026,77.66472029,925.0079,-1
2025-02-13T05:43:12.862Z,-0.1268,0.1395,0.0839,0.0413,-0.0781,0.112,-30.9249,29.025,-25.3177,12.86186026,77.66472029,925.0079,-1
2025-02-13T05:43:12.872Z,-0.1453,0.1008,0.0359,0.0418,-0.0746,0.1206,-30.9249,29.025,-25.3177,12.86186026,77.66472029,925.0079,-1
2025-02-13T05:43:12.882Z,-0.1347,0.0281,0.0103,0.0403,-0.0735,0.1222,-30.9249,29.025,-25.3177,12.86186026,77.66472029,925.0079,-1
2025-02-13T05:43:12.892Z,-0.1094,-0.0508,-0.0214,0.0291,-0.0753,0.1225,-30.9249,29.025,-25.3177,12.86186026,77.66472029,925.0079,-1
2025-02-13T05:43:12.902Z,-0.0546,-0.0687,-0.0775,0.0116,-0.0802,0.1203,-30.9249,29.025,-25.3177,12.86186026,77.66472029,925.0079,-1
2025-02-13T05:43:12.912Z,-0.0139,-0.0877,-0.0968,-0.003,-0.0926,0.1157,-30.9249,29.025,-25.3177,12.86186026,77.66472029,925.0079,-1
2025-02-13T05:43:12.922Z,0.0293,-0.084,-0.0838,-0.0071,-0.1075,0.1102,-30.9249,29.025,-25.3177,12.86186026,77.66472029,925.0079,-1
2025-02-13T05:43:12.932Z,0.0547,-0.1046,-0.0267,0.0009,-0.1166,0.1086,-30.9249,29.025,-25.3177,12.86186026,77.66472029,925.0079,-1
2025-02-13T05:43:12.942Z,0.0614,-0.1185,0.0165,0.0144,-0.1058,0.1083,-30.9249,29.025,-25.3177,12.86186026,77.66472029,925.0079,-1
2025-02-13T05:43:12.952Z,0.0831,-0.1278,0.0154,0.0225,-0.0844,0.1092,-30.9249,29.025,-25.3177,12.86186026,77.66472029,925.0079,-1
2025-02-13T05:43:12.962Z,0.1229,-0.1526,-0.049,0.0278,-0.056,0.1059,-30.9249,29.025,-25.3177,12.86186026,77.66472029,925.0079,-1
2025-02-13T05:43:12.972Z,0.1763,-0.1536,-0.0922,0.0261,-0.0365,0.0952,-30.9249,29.025,-25.3177,12.86186026,77.66472029,925.0079,-1
2025-02-13T05:43:12.982Z,0.2089,-0.1647,-0.1143,0.0226,-0.0342,0.0845,-30.9249,29.025,-25.3177,12.86186026,77.66472029,925.0079,-1
2025-02-13T05:43:12.992Z,0.2443,-0.1734,-0.1301,0.0218,-0.0404,0.0696,-30.9249,29.025,-25.3177,12.86186026,77.66472029,925.0079,-1
2025-02-13T05:43:13.002Z,0.2218,-0.1818,-0.0994,0.0239,-0.0393,0.0574,-30.9249,29.025,-25.3177,12.86186026,77.66472029,925.0079,-1
2025-02-13T05:43:13.012Z,0.2089,-0.1962,-0.1149,0.0233,-0.037,0.0518,-30.9249,29.025,-25.3177,12.86186026,77.66472029,925.0079,-1
2025-02-13T05:43:13.022Z,0.1678,-0.1902,-0.1501,0.0144,-0.0291,0.0521,-30.9249,29.025,-25.3177,12.86186026,77.66472029,925.0079,-1
2025-02-13T05:43:13.032Z,0.1797,-0.1515,-0.1609,-0.0012,-0.0215,0.0468,-30.9249,29.025,-25.3177,12.86186026,77.66472029,925.0079,-1
2025-02-13T05:43:13.042Z,0.2126,-0.1182,-0.1873,-0.0192,-0.023,0.04,-30.9249,29.025,-25.3177,12.86186026,77.66472029,925.0079,-1
2025-02-13T05:43:13.052Z,0.1962,-0.1016,-0.1828,-0.0369,-0.0333,0.0339,-30.9249,29.025,-25.3177,12.86186026,77.66472029,925.0079,-1
2025-02-13T05:43:13.062Z,0.2156,-0.1021,-0.1287,-0.0421,-0.0558,0.029,-30.9249,29.025,-25.3177,12.86186026,77.66472029,925.0079,-1
2025-02-13T05:43:13.072Z,0.1918,-0.1022,-0.0394,-0.0339,-0.0787,0.0214,-30.9249,29.025,-25.3177,12.86186026,77.66472029,925.0079,-1
2025-02-13T05:43:13.082Z,0.1868,-0.0959,0.0299,-0.0129,-0.0865,0.0155,-30.9249,29.025,-25.3177,12.86186026,77.66472029,925.0079,-1
2025-02-13T05:43:13.092Z,0.1773,-0.1195,0.0775,0.0082,-0.0622,0.0074,-30.9249,29.025,-25.3177,12.86186026,77.66472029,925.0079,-1
2025-02-13T05:43:13.102Z,0.1906,-0.1647,0.0348,0.0198,-0.0242,-0.0027,-30.9249,29.025,-25.3177,12.86186026,77.66472029,925.0079,-1
2025-02-13T05:43:13.112Z,0.2126,-0.1784,-0.0467,0.0269,0.0042,-0.0159,-30.9249,29.025,-25.3177,12.86186026,77.66472029,925.0079,-1
2025-02-13T05:43:13.122Z,0.2108,-0.1944,-0.1412,0.0244,0.0205,-0.0295,-30.9249,29.025,-25.3177,12.86186026,77.66472029,925.0079,-1
2025-02-13T05:43:13.132Z,0.2146,-0.1928,-0.1883,0.0159,0.0268,-0.0451,-30.9249,29.025,-25.3177,12.86186026,77.66472029,925.0079,-1
2025-02-13T05:43:13.143Z,0.1648,-0.1884,-0.213,0.0019,0.0241,-0.0505,-30.9249,29.025,-25.3177,12.86186026,77.66472029,925.0079,-1
2025-02-13T05:43:13.152Z,0.0807,-0.146,-0.2068,-0.0127,0.0184,-0.0436,-30.9249,29.025,-25.3177,12.86186026,77.66472029,925.0079,-1
2025-02-13T05:43:13.162Z,0.0031,-0.1041,-0.1707,-0.0218,0.013,-0.0347,-30.9249,29.025,-25.3177,12.86186026,77.66472029,925.0079,-1
2025-02-13T05:43:13.172Z,0.0025,-0.0501,-0.092,-0.0203,0.0142,-0.0288,-30.9249,29.025,-25.3177,12.86186026,77.66472029,925.0079,-1
2025-02-13T05:43:13.182Z,0.0295,-0.0152,0.0071,-0.0139,0.0132,-0.0316,-30.9249,29.025,-25.3177,12.86186026,77.66472029,925.0079,-1
2025-02-13T05:43:13.192Z,0.0504,-0.0016,0.0243,-0.0094,0.0158,-0.0365,-30.9249,29.025,-25.3177,12.86186026,77.66472029,925.0079,-1
2025-02-13T05:43:13.202Z,0.0253,-0.0136,0.0055,-0.0036,0.0211,-0.036,-30.9249,29.025,-25.3177,12.86186026,77.66472029,925.0079,-1
2025-02-13T05:43:13.212Z,0.0031,-0.0221,0.0245,0.0071,0.0285,-0.0362,-30.9249,29.025,-25.3177,12.86186026,77.66472029,925.0079,-1
2025-02-13T05:43:13.222Z,-0.0249,-0.0065,0.0638,0.0188,0.042,-0.0339,-30.9249,29.025,-25.3177,12.86186026,77.66472029,925.0079,-1
2025-02-13T05:43:13.232Z,-0.0693,-0.035,0.0783,0.0295,0.0469,-0.029,-30.9249,29.025,-25.3177,12.86186026,77.66472029,925.0079,-1
2025-02-13T05:43:13.242Z,-0.1028,-0.0407,0.0812,0.0316,0.0406,-0.0294,-30.9249,29.025,-25.3177,12.86186026,77.66472029,925.0079,-1
2025-02-13T05:43:13.252Z,-0.0849,-0.0311,0.0717,0.0233,0.0192,-0.0305,-30.9249,29.025,-25.3177,12.86186026,77.66472029,925.0079,-1
2025-02-13T05:43:13.262Z,-0.0784,-0.0142,0.0207,0.0145,0.0004,-0.0336,-30.9249,29.025,-25.3177,12.86186026,77.66472029,925.0079,-1
2025-02-13T05:43:13.272Z,-0.0812,0.0127,-0.0129,0.0101,-0.0084,-0.0349,-30.9249,29.025,-25.3177,12.86186026,77.66472029,925.0079,-1
2025-02-13T05:43:13.282Z,-0.0492,0.0451,-0.0237,0.0078,-0.0096,-0.0319,-30.9249,29.025,-25.3177,12.86186026,77.66472029,925.0079,-1
2025-02-13T05:43:13.292Z,-0.0339,0.0719,-0.0509,0.0111,0.0038,-0.0289,-30.9249,29.025,-25.3177,12.86186026,77.66472029,925.0079,-1
2025-02-13T05:43:13.302Z,-0.025,0.0742,-0.0808,0.0218,0.0183,-0.0214,-30.9249,29.025,-25.3177,12.86186026,77.66472029,925.0079,-1
2025-02-13T05:43:13.312Z,-0.0607,0.0309,-0.0792,0.0305,0.0327,-0.0126,-30.9249,29.025,-25.3177,12.86186026,77.66472029,925.0079,-1
2025-02-13T05:43:13.322Z,-0.0953,0.0162,-0.121,0.0313,0.0423,-0.0013,-30.9249,29.025,-25.3177,12.86186026,77.66472029,925.0079,-1
2025-02-13T05:43:13.332Z,-0.0743,0.0243,-0.2093,0.0175,0.053,0.0038,-30.9249,29.025,-25.3177,12.86186026,77.66472029,925.0079,-1
2025-02-13T05:43:13.342Z,0.0006,0.0297,-0.302,-0.0154,0.0566,-0.0031,-30.9249,29.025,-25.3177,12.86186026,77.66472029,925.0079,-1
2025-02-13T05:43:13.352Z,0.0435,-0.0001,-0.3792,-0.0487,0.0532,-0.0162,-30.9249,29.025,-25.3177,12.86186026,77.66472029,925.0079,-1
2025-02-13T05:43:13.362Z,0.0438,-0.021,-0.3461,-0.0745,0.0349,-0.0273,-30.9249,29.025,-25.3177,12.86186026,77.66472029,925.0079,-1
2025-02-13T05:43:13.372Z,0.011,0.0163,-0.2303,-0.0836,0.0191,-0.0263,-30.9249,29.025,-25.3177,12.86186026,77.66472029,925.0079,-1
2025-02-13T05:43:13.382Z,-0.039,0.0082,-0.0649,-0.0772,0.0097,-0.0186,-30.9249,29.025,-25.3177,12.86186026,77.66472029,925.0079,-1
2025-02-13T05:43:13.392Z,-0.0951,0.0009,0.0551,-0.0601,0.0121,-0.0083,-30.9249,29.025,-25.3177,12.86186026,77.66472029,925.0079,-1
2025-02-13T05:43:13.402Z,-0.0954,-0.0056,0.1451,-0.0403,0.024,-0.0023,-30.9249,29.025,-25.3177,12.86186026,77.66472029,925.0079,-1
2025-02-13T05:43:13.412Z,-0.0769,-0.0265,0.1873,-0.029,0.033,0.0025,-30.9249,29.025,-25.3177,12.86186026,77.66472029,925.0079,-1
2025-02-13T05:43:13.422Z,-0.0233,-0.0098,0.1534,-0.0247,0.0442,-0.0005,-30.9249,29.025,-25.3177,12.86186026,77.66472029,925.0079,-1
2025-02-13T05:43:13.432Z,0.0333,0.0061,0.1507,-0.0235,0.0352,-0.0054,-30.9249,29.025,-25.3177,12.86186026,77.66472029,925.0079,-1
2025-02-13T05:43:13.443Z,0.0486,0.017,0.1421,-0.0195,0.0199,-0.0146,-30.9249,29.025,-25.3177,12.86186026,77.66472029,925.0079,-1
2025-02-13T05:43:13.452Z,0.0485,0.0026,0.1662,-0.0128,0.0086,-0.0172,-30.9249,29.025,-25.3177,12.86186026,77.66472029,925.0079,-1
2025-02-13T05:43:13.462Z,0.0197,-0.0162,0.1509,-0.0026,-0.0001,-0.016,-30.9249,29.025,-25.3177,12.86186026,77.66472029,925.0079,-1
2025-02-13T05:43:13.472Z,-0.0141,-0.014,0.1081,0.0063,0.0073,-0.0107,-30.9249,29.025,-25.3177,12.86186026,77.66472029,925.0079,-1
2025-02-13T05:43:13.482Z,-0.0333,-0.0164,0.0529,0.0057,0.0219,-0.0043,-30.9249,29.025,-25.3177,12.86186026,77.66472029,925.0079,-1
2025-02-13T05:43:13.493Z,-0.0402,-0.0424,-0.009,0.0006,0.0306,-0.0035,-30.9249,29.025,-25.3177,12.86186026,77.66472029,925.0079,-1
2025-02-13T05:43:13.502Z,-0.0267,-0.0626,-0.0559,-0.0072,0.0323,-0.0075,-30.9249,29.025,-25.3177,12.86186026,77.66472029,925.0079,-1
2025-02-13T05:43:13.512Z,-0.0123,-0.0641,-0.0615,-0.0133,0.029,-0.014,-30.9249,29.025,-25.3177,12.86186026,77.66472029,925.0079,-1
2025-02-13T05:43:13.522Z,-0.0073,-0.0655,-0.0378,-0.0081,0.0245,-0.0201,-30.9249,29.025,-25.3177,12.86186026,77.66472029,925.0079,-1
2025-02-13T05:43:13.532Z,-0.0117,-0.0416,-0.0203,-0.0047,0.0253,-0.0159,-30.9249,29.025,-25.3177,12.86186026,77.66472029,925.0079,-1
2025-02-13T05:43:13.547Z,-0.03,-0.0072,-0.0236,-0.005,0.0291,-0.0095,-30.9249,29.025,-25.3177,12.86186026,77.66472029,925.0079,-1
2025-02-13T05:43:13.552Z,-0.0377,0.0198,-0.0667,-0.0129,0.0386,0.0017,-30.9249,29.025,-25.3177,12.86186026,77.66472029,925.0079,-1
2025-02-13T05:43:13.562Z,-0.0455,0.0296,-0.1038,-0.0183,0.0349,0.005,-30.9249,29.025,-25.3177,12.86186026,77.66472029,925.0079,-1
2025-02-13T05:43:13.572Z,-0.0138,0.0456,-0.079,-0.028,0.0292,0.0064,-30.9249,29.025,-25.3177,12.86186026,77.66472029,925.0079,-1
2025-02-13T05:43:13.582Z,-0.018,0.0252,-0.0801,-0.0335,0.0261,0.0021,-30.9249,29.025,-25.3177,12.86186026,77.66472029,925.0079,-1
2025-02-13T05:43:13.592Z,-0.0301,-0.0047,-0.0659,-0.0375,0.0304,0,-30.9249,29.025,-25.3177,12.86186026,77.66472029,925.0079,-1
2025-02-13T05:43:13.602Z,0.0008,0.0109,-0.0331,-0.0403,0.0409,-0.0035,-30.9249,29.025,-25.3177,12.86186026,77.66472029,925.0079,-1
2025-02-13T05:43:13.612Z,0.0015,0.0043,0.0189,-0.0367,0.0495,-0.0047,-30.9249,29.025,-25.3177,12.86186026,77.66472029,925.0079,-1
2025-02-13T05:43:13.622Z,-0.0437,0.0014,0.0825,-0.0319,0.0488,0.0016,-30.9249,29.025,-25.3177,12.86186026,77.66472029,925.0079,-1
2025-02-13T05:43:13.632Z,-0.0955,0.0243,0.1666,-0.0189,0.0349,0.0111,-30.9249,29.025,-25.3177,12.86186026,77.66472029,925.0079,-1
2025-02-13T05:43:13.643Z,-0.1498,0.0445,0.2248,-0.0055,0.0108,0.0204,-30.9249,29.025,-25.3177,12.86186026,77.66472029,925.0079,-1
2025-02-13T05:43:13.652Z,-0.1546,0.0705,0.2472,0.0027,-0.0085,0.0307,-30.9249,29.025,-25.3177,12.86186026,77.66472029,925.0079,-1
2025-02-13T05:43:13.662Z,-0.1136,0.0408,0.205,0.0055,-0.0176,0.0329,-30.9249,29.025,-25.3177,12.86186026,77.66472029,925.0079,-1
2025-02-13T05:43:13.672Z,-0.0595,0.0143,0.1271,0.0009,-0.0185,0.0293,-30.9249,29.025,-25.3177,12.86186026,77.66472029,925.0079,-1
2025-02-13T05:43:13.682Z,0.0023,0.0067,0.0369,-0.0061,-0.0176,0.0219,-30.9249,29.025,-25.3177,12.86186026,77.66472029,925.0079,-1
2025-02-13T05:43:13.693Z,0.0328,-0.0186,-0.0155,-0.013,-0.0113,0.0154,-30.9249,29.025,-25.3177,12.86186026,77.66472029,925.0079,-1
2025-02-13T05:43:13.702Z,0.0515,-0.0256,-0.0346,-0.0151,-0.0099,0.0123,-30.9249,29.025,-25.3177,12.86186026,77.66472029,925.0079,-1
2025-02-13T05:43:13.712Z,0.0231,-0.0341,-0.0177,-0.0139,-0.011,0.0057,-30.9249,29.025,-25.3177,12.86186026,77.66472029,925.0079,-1
2025-02-13T05:43:13.722Z,0.0009,-0.0426,-0.0015,-0.0149,-0.0143,0.0111,-30.9249,29.025,-25.3177,12.86186026,77.66472029,925.0079,-1
2025-02-13T05:43:13.732Z,-0.0207,-0.0484,-0.0281,-0.0205,-0.0187,0.0144,-30.9249,29.025,-25.3177,12.86186026,77.66472029,925.0079,-1
2025-02-13T05:43:13.743Z,-0.0026,-0.043,-0.0617,-0.0276,-0.0227,0.0173,-30.9249,29.025,-25.3177,12.86186026,77.66472029,925.0079,-1
2025-02-13T05:43:13.752Z,0.0266,-0.0471,-0.0734,-0.0389,-0.024,0.0164,-30.9249,29.025,-25.3177,12.86186026,77.66472029,925.0079,-1
2025-02-13T05:43:13.762Z,0.0875,-0.0598,-0.0812,-0.0484,-0.0285,0.0116,-30.9249,29.025,-25.3177,12.86186026,77.66472029,925.0079,-1
2025-02-13T05:43:13.772Z,0.1043,-0.0685,-0.0438,-0.0527,-0.0284,0.0025,-30.9249,29.025,-25.3177,12.86186026,77.66472029,925.0079,-1
2025-02-13T05:43:13.782Z,0.1537,-0.0734,-0.0137,-0.0528,-0.0227,-0.0127,-30.9249,29.025,-25.3177,12.86186026,77.66472029,925.0079,-1
2025-02-13T05:43:13.792Z,0.158,-0.097,0.054,-0.0466,-0.0183,-0.0211,-30.9249,29.025,-25.3177,12.86186026,77.66472029,925.0079,-1
2025-02-13T05:43:13.802Z,0.116,-0.1002,0.1255,-0.0352,-0.0156,-0.0248,-30.9249,29.025,-25.3177,12.86186026,77.66472029,925.0079,-1
2025-02-13T05:43:13.812Z,0.0961,-0.0928,0.1882,-0.0218,-0.0143,-0.0227,-30.9249,29.025,-25.3177,12.86186026,77.66472029,925.0079,-1
2025-02-13T05:43:13.822Z,0.0654,-0.115,0.2234,-0.0037,-0.0197,-0.0236,-30.9249,29.025,-25.3177,12.86186026,77.66472029,925.0079,-1
2025-02-13T05:43:13.832Z,0.0357,-0.1129,0.2339,0.0117,-0.026,-0.0245,-30.9249,29.025,-25.3177,12.86186026,77.66472029,925.0079,-1
2025-02-13T05:43:13.843Z,0.0365,-0.1144,0.2125,0.0218,-0.0281,-0.026,-30.9249,29.025,-25.3177,12.86186026,77.66472029,925.0079,-1
2025-02-13T05:43:13.852Z,0.0379,-0.116,0.1524,0.0246,-0.022,-0.0311,-30.9249,29.025,-25.3177,12.86186026,77.66472029,925.0079,-1
2025-02-13T05:43:13.862Z,0.0489,-0.0927,0.109,0.0265,-0.0181,-0.0357,-30.9249,29.025,-25.3177,12.86186026,77.66472029,925.0079,-1
2025-02-13T05:43:13.872Z,0.0355,-0.0533,0.0797,0.0297,-0.0087,-0.0393,-30.9249,29.025,-25.3177,12.86186026,77.66472029,925.0079,-1
2025-02-13T05:43:13.882Z,0.009,-0.0285,0.0513,0.0321,-0.0055,-0.0411,-30.9249,29.025,-25.3177,12.86186026,77.66472029,925.0079,-1
